workerid,proliferate.condition,IC,lemma,response,rt,slide_number_in_experiment,suffix,trial_type,word,error
141,condition1,ar,hilar,j,1461,8,ará,target,hilará,
141,condition1,ar,bailar,j,1483,9,aré,target,bailaré,
141,condition1,ar,lailar,f,1370,10,arías,distractor,lailarías,
141,condition1,ar,galar,f,1352,11,arán,distractor,galarán,
141,condition1,ir,gruñir,j,1303,12,iremos,target,gruñiremos,
141,condition1,ar,fisar,f,1348,13,aremos,distractor,fisaremos,
141,condition1,ar,nadar,j,1216,14,arás,target,nadarás,
141,condition1,er,moncer,f,1282,15,erá,distractor,moncerá,
141,condition1,ar,plantar,j,1326,16,arás,target,plantarás,
141,condition1,er,tañer,f,1440,17,íamos,target,tañíamos,
141,condition1,ar,ciser,f,1553,18,aríamos,distractor,cisaríamos,
141,condition1,ir,cuarrir,f,1742,19,irán,distractor,cuarrirán,
141,condition1,ar,luchar,j,1273,20,ábamos,target,luchábamos,
141,condition1,ir,batir,j,1339,21,irás,target,batirás,
141,condition1,ir,cumplir,j,1304,22,iría,target,cumpliría,
141,condition1,ar,rimar,j,1381,23,ábamos,target,rimábamos,
141,condition1,er,ceter,f,1462,24,eremos,distractor,ceteremos,
141,condition1,ar,vidar,f,1573,25,arías,distractor,vidarías,
141,condition1,ar,durar,j,1305,26,aría,target,duraría,
141,condition1,er,frinder,f,1373,27,ería,distractor,frindería,
141,condition1,ar,lorgar,f,1305,28,arán,distractor,lorgarán,
141,condition1,er,ceter,f,1573,29,eríamos,distractor,ceteríamos,
141,condition1,ar,samar,f,1509,30,ará,distractor,samará,
141,condition1,ar,runar,f,1462,31,ará,distractor,runará,
141,condition1,ar,jurar,j,1328,32,arán,target,jurarán,
141,condition1,ar,sauar,f,1687,33,aré,distractor,sauaré,
141,condition1,ar,hilar,j,1644,34,aría,target,hilaría,
141,condition1,er,leer,j,1439,35,erás,target,leerás,
141,condition1,ir,subir,j,1282,36,ían,target,subían,
141,condition1,ir,gamir,f,1373,37,iría,distractor,gamiría,
141,condition1,ar,dachar,f,1461,38,aría,distractor,dacharía,
141,condition1,ar,gunar,f,1553,39,arán,distractor,gunarán,
141,condition1,ar,tasar,f,1419,40,arás,target,tasarás,
141,condition1,ir,tuplir,f,1237,41,irá,distractor,tuplirá,
141,condition1,ar,besar,j,1192,42,ábamos,target,besábamos,
141,condition1,ar,bigar,j,1281,43,arían,distractor,bigarían,
141,condition1,ar,cetar,f,1327,44,arías,distractor,cetarías,
141,condition1,ir,gruñir,j,1305,45,irán,target,gruñirán,
141,condition1,ir,subir,j,1418,46,iré,target,subiré,
141,condition1,ar,tasar,f,1775,47,arías,target,tasarías,
141,condition1,ar,rotar,j,1349,48,arán,target,rotarán,
141,condition1,ar,filtrar,j,1575,49,abas,target,filtrabas,
141,condition1,ar,charlar,j,1306,50,ábamos,target,charlábamos,
141,condition1,er,somer,f,1597,51,íamos,distractor,somíamos,
141,condition1,er,comer,j,1191,52,ería,target,comería,
141,condition1,ar,pavar,j,1710,53,aban,distractor,pavaban,
141,condition1,er,hier,f,1428,54,íamos,distractor,hiíamos,
141,condition1,ar,clartar,f,1563,55,aría,distractor,clartaría,
141,condition1,ir,cuarrir,f,1677,56,iré,distractor,cuarriré,
141,condition1,ar,quijar,f,1620,57,aré,distractor,quijaré,
141,condition1,ir,sufrir,j,1269,58,irán,target,sufrirán,
141,condition1,ar,pavar,j,2185,59,aría,distractor,pavaría,
141,condition1,ar,galar,f,1394,60,aríamos,distractor,galaríamos,
141,condition1,ar,runar,f,2048,61,arían,distractor,runarían,
141,condition1,er,seser,f,1416,62,erían,distractor,seserían,
141,condition1,ar,cenar,j,1170,63,aré,target,cenaré,
141,condition1,ar,tasar,f,1777,64,aré,target,tasaré,
141,condition1,er,riter,f,1350,65,erán,distractor,riterán,
141,condition1,ir,unir,j,1271,66,iré,target,uniré,
141,condition1,ir,mardir,f,1744,67,iríamos,distractor,mardiríamos,
141,condition1,ar,sumar,j,1574,68,arán,target,sumarán,
141,condition1,er,vender,j,1867,69,ía,target,vendía,
141,condition1,ar,mertar,f,1463,70,ará,distractor,mertará,
141,condition1,er,temer,j,1551,71,íamos,target,temíamos,
141,condition1,er,lacher,f,1846,72,ías,distractor,lachías,
141,condition1,ar,focar,f,1844,73,ará,distractor,focará,
141,condition1,ar,gachar,f,1619,74,arás,distractor,gacharás,
141,condition1,ar,clartar,f,1664,75,arán,distractor,clartarán,
141,condition1,er,arder,f,1394,76,íamos,target,ardíamos,
141,condition1,er,riter,f,1328,77,ería,distractor,ritería,
141,condition1,ar,limar,f,1553,78,arían,target,limarían,
141,condition1,er,frinder,f,1418,79,erías,distractor,frinderías,
141,condition1,er,arder,j,1417,80,ería,target,ardería,
141,condition1,ir,batir,j,1461,81,iría,target,batiría,
141,condition1,er,honder,f,1327,82,eré,distractor,honderé,
141,condition1,ar,narrar,j,1765,83,abas,target,narrabas,
141,condition1,er,correr,j,1462,84,eré,target,correré,
141,condition1,er,somer,f,1631,85,erá,distractor,somerá,
141,condition1,ir,bruvir,f,1350,86,iría,distractor,bruviría,
141,condition1,ar,sumar,j,1283,87,ábamos,target,sumábamos,
141,condition1,ar,runar,f,2452,88,aremos,distractor,runaremos,
141,condition1,ir,luntir,f,1867,89,iremos,distractor,luntiremos,
141,condition1,ir,luntir,f,1790,90,iría,distractor,luntiría,
141,condition1,er,raber,f,1507,91,eré,distractor,raberé,
141,condition1,ar,plantar,j,1315,92,aríamos,target,plantaríamos,
141,condition1,er,lamer,j,1350,93,íamos,target,lamíamos,
141,condition1,ir,unir,j,1396,94,ías,target,unías,
141,condition1,ir,bruvir,f,1304,95,irán,distractor,bruvirán,
141,condition1,er,raber,f,2026,96,ías,distractor,rabías,
141,condition1,ar,faltar,j,1394,97,aba,target,faltaba,
141,condition1,er,morder,j,2272,98,ían,target,mordían,
141,condition1,ar,rotar,j,2025,99,aría,target,rotaría,
141,condition1,er,anrer,f,1836,100,erás,distractor,anrerás,
141,condition1,ir,cichir,f,2742,101,iríamos,distractor,cichiríamos,
141,condition1,ar,hilar,j,1452,102,aremos,target,hilaremos,
141,condition1,ir,cubrir,j,1486,103,ías,target,cubrías,
141,condition1,ar,besar,j,1347,104,ará,target,besará,
141,condition1,ar,zusar,f,1575,105,aba,distractor,zusaba,
141,condition1,ar,dachar,f,1507,106,arían,distractor,dacharían,
141,condition1,er,correr,j,1396,107,erías,target,correrías,
141,condition1,er,tañer,j,1686,108,erían,target,tañerían,
141,condition1,er,temer,j,1282,109,eríamos,target,temeríamos,
141,condition1,ar,samar,f,1282,110,arían,distractor,samarían,
141,condition1,ar,lailar,f,1553,111,ábamos,distractor,lailábamos,
141,condition1,ir,tujir,f,2149,112,iré,distractor,tujiré,
141,condition1,er,leer,j,1518,113,erán,target,leerán,
141,condition1,ar,bigar,f,1462,114,aría,distractor,bigaría,
141,condition1,ar,bigar,f,1394,115,ábamos,distractor,bigábamos,
141,condition1,ir,gamir,f,1395,116,irás,distractor,gamirás,
141,condition1,ir,bruvir,f,1283,117,irías,distractor,bruvirías,
141,condition1,er,cefler,f,1239,118,erás,distractor,ceflerás,
141,condition1,ir,cumplir,j,1415,119,ías,target,cumplías,
141,condition1,ar,bigar,f,1642,120,abas,distractor,bigabas,
141,condition1,ar,fisar,f,2149,121,aré,distractor,fisaré,
141,condition1,er,lamer,j,2531,122,erás,target,lamerás,
141,condition1,ar,vultar,f,1552,123,ará,distractor,vultará,
141,condition1,ar,pavar,f,1237,124,abas,distractor,pavabas,
141,condition1,ar,cenar,j,1756,125,arán,target,cenarán,
141,condition1,er,morder,j,1464,126,ería,target,mordería,
141,condition1,ar,sindar,f,1663,127,ará,distractor,sindará,
141,condition1,ar,faltar,j,1539,128,aré,target,faltaré,
141,condition1,ar,quijar,f,1362,129,arían,distractor,quijarían,
141,condition1,ir,cuarrir,f,1440,130,ías,distractor,cuarrías,
141,condition1,ar,samar,f,1372,131,arías,distractor,samarías,
141,condition1,ir,partir,j,1438,132,iríamos,target,partiríamos,
141,condition1,er,lamer,j,1330,133,ían,target,lamían,
141,condition1,ar,durar,j,1325,134,arías,target,durarías,
141,condition1,ar,fautrar,f,1474,135,ará,distractor,fautrará,
141,condition1,ar,durar,j,1383,136,arán,target,durarán,
141,condition1,ar,eplar,f,1372,137,ábamos,distractor,eplábamos,
141,condition1,ar,cetar,f,1283,138,arían,distractor,cetarían,
141,condition1,ir,mardir,f,1395,139,ían,distractor,mardían,
141,condition1,er,hier,f,1755,140,erías,distractor,hierías,
141,condition1,ar,faltar,j,1214,141,arás,target,faltarás,
141,condition1,ir,imir,f,1262,142,irá,distractor,imirá,
141,condition1,ar,durar,j,1281,143,aríamos,target,duraríamos,
141,condition1,ar,bimar,f,1281,144,aba,distractor,bimaba,
141,condition1,ar,quijar,f,1351,145,aba,distractor,quijaba,
141,condition1,er,porer,f,1440,146,íamos,distractor,poríamos,
141,condition1,ir,sufrir,j,1350,147,iremos,target,sufriremos,
141,condition1,ar,charlar,j,2633,148,aremos,target,charlaremos,
141,condition1,ir,cubrir,j,1956,149,irían,target,cubrirían,
141,condition1,ar,luchar,j,1619,150,aríamos,target,lucharíamos,
141,condition1,ar,faltar,j,1665,151,aremos,target,faltaremos,
141,condition1,ar,bigar,f,1664,152,arán,distractor,bigarán,
141,condition1,ir,mardir,f,1294,153,iremos,distractor,mardiremos,
141,condition1,ar,vidar,f,1406,154,aría,distractor,vidaría,
141,condition1,er,somer,f,1597,155,erán,distractor,somerán,
141,condition1,ir,cichir,f,1934,156,ían,distractor,cichían,
141,condition1,ir,sufrir,j,1306,157,iré,target,sufriré,
141,condition1,er,cefler,f,1281,158,erían,distractor,ceflerían,
141,condition1,ar,nadar,j,1416,159,ábamos,target,nadábamos,
141,condition1,er,anrer,f,1283,160,erían,distractor,anrerían,
141,condition1,er,arder,j,1393,161,ías,target,ardías,
141,condition1,ir,luntir,f,1418,162,irá,distractor,luntirá,
141,condition1,ar,samar,f,2295,163,aría,distractor,samaría,
141,condition1,ar,casar,j,1845,164,aban,target,casaban,
141,condition1,ar,rimar,j,1911,165,aba,target,rimaba,
141,condition1,ir,cumplir,j,1372,166,iríamos,target,cumpliríamos,
141,condition1,ir,partir,j,1550,167,íamos,target,partíamos,
141,condition1,er,moncer,f,1666,168,erás,distractor,moncerás,
141,condition1,ir,tuplir,f,1375,169,íamos,distractor,tuplíamos,
141,condition1,er,correr,j,1552,170,ías,target,corrías,
141,condition1,er,coser,j,1619,171,erías,target,coserías,
141,condition1,ar,jurar,j,2958,172,aré,target,juraré,
141,condition1,er,raber,f,1586,173,eríamos,distractor,raberíamos,
141,condition1,ar,runar,f,1475,174,ábamos,distractor,runábamos,
141,condition1,ar,nadar,j,1349,175,ará,target,nadará,
141,condition1,ar,gunar,f,1486,176,ábamos,distractor,gunábamos,
141,condition1,er,cefler,f,1451,177,íamos,distractor,ceflíamos,
141,condition1,ar,tasar,f,1483,178,ará,target,tasará,
141,condition1,er,ceter,f,1350,179,ían,distractor,cetían,
141,condition1,er,creer,j,1328,180,eríamos,target,creeríamos,
141,condition1,er,frinder,f,1372,181,íamos,distractor,frindíamos,
141,condition1,ar,fisar,f,1351,182,aría,distractor,fisaría,
141,condition1,er,meter,j,1642,183,eríamos,target,meteríamos,
141,condition1,er,leer,j,1462,184,ía,target,leía,
141,condition1,ar,casar,j,1395,185,aría,target,casaría,
141,condition1,ir,batir,j,1308,186,íamos,target,batíamos,
141,condition1,ir,imir,f,1234,187,ían,distractor,imían,
141,condition1,er,toser,f,1237,188,erás,target,toserás,
141,condition1,ir,unir,j,1147,189,ía,target,unía,
141,condition1,er,hier,f,1891,190,eré,distractor,hieré,
141,condition1,ar,nadar,j,1517,191,aríamos,target,nadaríamos,
141,condition1,ar,nadar,j,1564,192,aría,target,nadaría,
141,condition1,ar,besar,j,1451,193,arías,target,besarías,
141,condition1,ar,obrar,j,1541,194,ará,target,obrará,
141,condition1,ar,rayar,j,1373,195,aremos,target,rayaremos,
141,condition1,er,creer,j,1305,196,íamos,target,creíamos,
141,condition1,er,ceter,f,1484,197,ía,distractor,cetía,
141,condition1,er,arder,j,1214,198,ía,target,ardía,
141,condition1,ar,vultar,f,1238,199,aban,distractor,vultaban,
141,condition1,ar,jurar,j,1371,200,arían,target,jurarían,
141,condition1,er,leer,j,1610,202,ería,target,leería,
141,condition1,er,riter,f,1551,203,erías,distractor,riterías,
141,condition1,ar,charlar,f,1775,204,arán,target,charlarán,
141,condition1,ir,sufrir,j,1870,205,irías,target,sufrirías,
141,condition1,ar,gachar,f,2314,206,arías,distractor,gacharías,
141,condition1,ar,rimar,j,1304,207,aría,target,rimaría,
141,condition1,ar,casar,j,1528,208,arían,target,casarían,
141,condition1,ir,sufrir,j,1259,209,íamos,target,sufríamos,
141,condition1,ar,retar,j,1822,210,arán,target,retarán,
141,condition1,er,anrer,f,1394,211,erán,distractor,anrerán,
141,condition1,ar,hilar,f,2859,212,abas,target,hilabas,
141,condition1,ar,maftar,f,1664,213,arías,distractor,maftarías,
141,condition1,ar,mertar,f,1417,214,aré,distractor,mertaré,
141,condition1,ar,clartar,f,1890,215,aban,distractor,clartaban,
141,condition1,er,faner,f,1508,216,erían,distractor,fanerían,
141,condition1,er,seser,f,1349,217,eré,distractor,seseré,
141,condition1,er,honder,f,1349,218,eríamos,distractor,honderíamos,
141,condition1,er,cefler,f,1259,219,erá,distractor,ceflerá,
141,condition1,er,ceter,f,1620,220,ería,distractor,cetería,
141,condition1,ar,formar,j,1483,221,abas,target,formabas,
141,condition1,er,arder,j,1709,222,eré,target,arderé,
141,condition1,er,lacher,f,1397,223,ía,distractor,lachía,
141,condition1,ar,cortar,j,1957,224,arías,target,cortarías,
141,condition1,er,honder,f,1226,225,erá,distractor,honderá,
141,condition1,er,ceder,j,1314,226,ía,target,cedía,
141,condition1,ar,runar,f,1499,227,abas,distractor,runabas,
141,condition1,er,arder,j,1741,228,erás,target,arderás,
141,condition1,er,morder,j,1619,229,erían,target,morderían,
141,condition1,ar,lailar,f,1421,230,aba,distractor,lailaba,
141,condition1,er,lacher,f,1258,231,erá,distractor,lacherá,
141,condition1,ar,focar,f,1620,232,arás,distractor,focarás,
141,condition1,ar,mertar,f,1482,233,aba,distractor,mertaba,
141,condition1,er,morder,j,1689,234,ías,target,mordías,
141,condition1,ir,cichir,f,1685,235,irás,distractor,cichirás,
141,condition1,er,vender,j,1215,236,íamos,target,vendíamos,
141,condition1,er,faner,f,2338,237,ía,distractor,fanía,
141,condition1,er,temer,j,1868,238,eremos,target,temeremos,
141,condition1,er,seser,f,1529,239,ía,distractor,sesía,
141,condition1,ar,bimar,f,2116,240,aríamos,distractor,bimaríamos,
141,condition1,ar,charlar,f,2248,241,arían,target,charlarían,
141,condition1,ar,lorgar,f,1733,242,arías,distractor,lorgarías,
141,condition1,ar,focar,f,2407,243,aban,distractor,focaban,
141,condition1,ar,tasar,f,1979,244,aría,target,tasaría,
141,condition1,ar,chanrar,f,1305,245,aré,distractor,chanraré,
141,condition1,er,cefler,f,1871,246,erán,distractor,ceflerán,
141,condition1,ar,dachar,f,1774,247,arán,distractor,dacharán,
141,condition1,ar,narrar,j,1382,248,aba,target,narraba,
141,condition1,er,tañer,f,1455,249,eremos,target,tañeremos,
141,condition1,ar,hallar,j,1438,250,aban,target,hallaban,
141,condition1,ar,maftar,f,1327,251,arán,distractor,maftarán,
141,condition1,ar,sindar,f,2590,252,arás,distractor,sindarás,
141,condition1,er,morder,j,2025,253,erán,target,morderán,
141,condition1,ar,plantar,f,2270,254,arían,target,plantarían,
141,condition1,er,honder,f,1306,255,erán,distractor,honderán,
141,condition1,er,correr,j,1214,256,eremos,target,correremos,
141,condition1,ar,lailar,f,1258,257,arían,distractor,lailarían,
141,condition1,ar,sumar,f,2049,258,aremos,target,sumaremos,
141,condition1,er,toser,f,3666,259,eré,target,toseré,
141,condition1,ar,limar,f,1801,260,arán,target,limarán,
141,condition1,ar,retar,j,1910,261,aría,target,retaría,
141,condition1,ar,tasar,f,3132,262,aban,target,tasaban,
141,condition1,ar,formar,j,3168,263,aría,target,formaría,
141,condition1,ar,hilar,j,1687,264,ábamos,target,hilábamos,
141,condition1,ar,gachar,f,2297,265,aría,distractor,gacharía,
141,condition1,ar,vidar,f,3667,266,aba,distractor,vidaba,
141,condition1,ir,subir,j,1890,267,irás,target,subirás,
141,condition1,er,ciper,f,2205,268,eré,distractor,ciperé,
141,condition1,ar,maftar,f,3893,269,aba,distractor,maftaba,
141,condition1,ar,luchar,j,1507,270,arías,target,lucharías,
141,condition1,ar,pactar,f,3059,271,aban,target,pactaban,
141,condition1,ar,cenar,j,1575,272,arías,target,cenarías,
141,condition1,ar,pavar,j,2701,273,aríamos,distractor,pavaríamos,
141,condition1,ar,focar,f,1564,274,arían,distractor,focarían,
141,condition1,ar,limar,j,1403,275,aba,target,limaba,
141,condition1,er,arder,j,1237,276,erías,target,arderías,
141,condition1,ir,luntir,f,1754,277,irás,distractor,luntirás,
141,condition1,ar,charlar,j,2567,278,aba,target,charlaba,
141,condition1,ar,samar,f,1620,279,arás,distractor,samarás,
141,condition1,ar,besar,j,1620,280,arán,target,besarán,
141,condition1,ar,focar,f,1755,281,aremos,distractor,focaremos,
141,condition1,ar,mertar,f,1754,282,ábamos,distractor,mertábamos,
141,condition1,ir,tuplir,f,1936,283,irían,distractor,tuplirían,
141,condition1,er,frinder,f,1439,284,eremos,distractor,frinderemos,
141,condition1,er,leer,j,2110,285,eré,target,leeré,
141,condition1,er,tañer,f,1916,286,ían,target,tañían,
141,condition1,er,meter,j,1303,287,erían,target,meterían,
141,condition1,ar,rimar,f,1814,288,arás,target,rimarás,
141,condition1,er,anrer,f,1471,289,eríamos,distractor,anreríamos,
141,condition1,ar,bailar,j,1407,290,ará,target,bailará,
141,condition1,ar,besar,j,2037,291,aría,target,besaría,
141,condition1,ar,cetar,f,2632,292,arán,distractor,cetarán,
141,condition1,ar,ciser,f,1486,293,aría,distractor,cisaría,
141,condition1,ar,fisar,f,1258,294,aríamos,distractor,fisaríamos,
141,condition1,ar,casar,j,1306,295,aré,target,casaré,
141,condition1,er,clier,f,1353,296,ías,distractor,cliías,
141,condition1,ar,retar,j,1480,297,arías,target,retarías,
141,condition1,ar,jurar,j,1892,298,arías,target,jurarías,
141,condition1,ar,cenar,j,2519,299,abas,target,cenabas,
141,condition1,ar,zusar,f,1326,300,arías,distractor,zusarías,
141,condition1,ar,burrar,f,1441,301,ará,distractor,burrará,
141,condition1,ir,fundir,j,1308,302,ían,target,fundían,
141,condition1,ar,sauar,f,1819,303,ará,distractor,sauará,
141,condition1,ir,sufrir,j,2116,304,ías,target,sufrías,
141,condition1,er,lamer,f,1935,305,erías,target,lamerías,
141,condition1,ar,rayar,j,1235,306,aba,target,rayaba,
141,condition1,ir,gamir,f,1329,307,irá,distractor,gamirá,
141,condition1,ar,mertar,f,3125,308,aban,distractor,mertaban,
141,condition1,er,coser,f,1891,309,ía,target,cosía,
141,condition1,er,tejer,j,1530,310,erá,target,tejerá,
141,condition1,er,faner,f,1935,311,ería,distractor,fanería,
141,condition1,er,hier,f,2654,312,ería,distractor,hiería,
141,condition1,ir,gruñir,j,1867,313,irá,target,gruñirá,
141,condition1,ar,obrar,j,1764,314,aba,target,obraba,
141,condition1,er,tejer,j,2419,315,ía,target,tejía,
141,condition1,ar,sindar,f,1618,316,aré,distractor,sindaré,
141,condition1,ar,bailar,j,1417,317,aban,target,bailaban,
141,condition1,ir,gamir,f,1665,318,irías,distractor,gamirías,
141,condition1,er,comer,j,4161,319,eré,target,comeré,
141,condition1,ar,vidar,f,3287,320,aríamos,distractor,vidaríamos,
141,condition1,ar,samar,f,1427,321,arán,distractor,samarán,
141,condition1,ar,nadar,j,1814,322,aban,target,nadaban,
141,condition1,ar,rayar,f,2221,323,ará,target,rayará,
141,condition1,er,morder,j,2354,324,erías,target,morderías,
141,condition1,ar,fisar,f,1653,325,arán,distractor,fisarán,
141,condition1,ir,mardir,f,2115,326,ías,distractor,mardías,
141,condition1,ar,nadar,j,1991,327,arían,target,nadarían,
141,condition1,ir,fundir,j,1987,328,irán,target,fundirán,
141,condition1,ar,quemar,j,3017,329,ábamos,target,quemábamos,
141,condition1,er,somer,f,2025,330,ía,distractor,somía,
141,condition1,ar,retar,j,2970,331,arás,target,retarás,
141,condition1,ir,partir,j,4007,332,iría,target,partiría,
141,condition1,er,seper,f,1886,333,ían,distractor,sepían,
141,condition1,er,leer,j,2204,334,eremos,target,leeremos,
141,condition1,ar,cetar,f,1916,335,aría,distractor,cetaría,
141,condition1,ar,durar,j,1348,336,aré,target,duraré,
141,condition1,ar,casar,f,2249,337,ará,target,casará,
141,condition1,ar,clartar,f,2612,338,arían,distractor,clartarían,
141,condition1,ar,rimar,j,1528,339,aremos,target,rimaremos,
141,condition1,ar,rotar,j,1194,340,aré,target,rotaré,
141,condition1,ar,sindar,f,1190,341,arían,distractor,sindarían,
141,condition1,ir,unir,j,1350,342,íamos,target,uníamos,
141,condition1,ir,cumplir,j,1282,343,iré,target,cumpliré,
141,condition1,ar,clartar,f,1533,344,arás,distractor,clartarás,
141,condition1,ir,bruvir,f,1943,345,iríamos,distractor,bruviríamos,
141,condition1,er,ceter,f,1620,346,erían,distractor,ceterían,
141,condition1,ar,charlar,f,1554,347,aría,target,charlaría,
141,condition1,er,honder,f,1564,348,erían,distractor,honderían,
141,condition1,er,moncer,f,1415,349,eremos,distractor,monceremos,
141,condition1,ir,cichir,f,1914,350,iré,distractor,cichiré,
141,condition1,er,morder,j,2182,351,íamos,target,mordíamos,
141,condition1,er,seser,f,1912,352,eremos,distractor,seseremos,
141,condition1,ar,vidar,f,1980,353,aremos,distractor,vidaremos,
141,condition1,ar,burrar,f,3735,354,aríamos,distractor,burraríamos,
141,condition1,ar,rayar,j,1596,355,arás,target,rayarás,
141,condition1,ar,eplar,f,1688,356,arías,distractor,eplarías,
141,condition1,er,ceder,j,1575,357,ían,target,cedían,
141,condition1,ir,gruñir,j,1799,358,ían,target,gruñían,
141,condition1,ar,charlar,j,1486,359,aré,target,charlaré,
141,condition1,ar,samar,f,1281,360,aban,distractor,samaban,
141,condition1,ir,tuplir,f,1439,361,irán,distractor,tuplirán,
141,condition1,er,temer,j,1890,362,ería,target,temería,
141,condition1,er,moncer,f,3614,363,ías,distractor,moncías,
141,condition1,ir,cichir,f,2835,364,irían,distractor,cichirían,
141,condition1,ar,bailar,j,2664,365,aremos,target,bailaremos,
141,condition1,ar,hallar,j,1350,366,arían,target,hallarían,
141,condition1,ir,bruvir,f,1889,367,ían,distractor,bruvían,
141,condition1,ir,partir,j,1597,368,ía,target,partía,
141,condition1,ar,sauar,f,1372,369,abas,distractor,sauabas,
141,condition1,ar,eplar,f,1665,370,aríamos,distractor,eplaríamos,
141,condition1,ar,casar,j,1530,371,aríamos,target,casaríamos,
141,condition1,ar,pactar,j,1473,372,arás,target,pactarás,
141,condition1,ar,limar,j,2237,373,arías,target,limarías,
141,condition1,er,honder,f,1598,374,ías,distractor,hondías,
141,condition1,er,ciper,f,1708,375,erán,distractor,ciperán,
141,condition1,ar,retar,j,2193,376,aremos,target,retaremos,
141,condition1,er,porer,f,1522,377,ería,distractor,porería,
141,condition1,ar,lorgar,f,1439,378,aré,distractor,lorgaré,
141,condition1,ir,luntir,f,2565,379,ían,distractor,luntían,
141,condition1,ar,plantar,j,1709,380,arán,target,plantarán,
141,condition1,er,toser,f,2138,381,erá,target,toserá,
141,condition1,er,lamer,j,3736,382,erían,target,lamerían,
141,condition1,ar,mertar,f,1844,383,aríamos,distractor,mertaríamos,
141,condition1,er,lamer,j,2680,384,eremos,target,lameremos,
141,condition1,ar,sindar,f,3150,385,aría,distractor,sindaría,
141,condition1,er,raber,f,4790,386,erías,distractor,raberías,
141,condition1,ar,obrar,f,2793,387,arías,target,obrarías,
141,condition1,ar,pactar,f,4204,388,abas,target,pactabas,
141,condition1,ar,cenar,j,4116,389,aríamos,target,cenaríamos,
141,condition1,ar,eplar,f,1461,390,arían,distractor,eplarían,
141,condition1,ir,subir,j,1958,391,iríamos,target,subiríamos,
141,condition1,ir,tujir,f,2226,392,irás,distractor,tujirás,
141,condition1,er,ciper,f,1396,393,ería,distractor,cipería,
141,condition1,ar,quijar,f,2428,394,arán,distractor,quijarán,
141,condition1,ir,partir,j,3375,395,irás,target,partirás,
141,condition1,ar,gachar,f,1913,396,aremos,distractor,gacharemos,
141,condition1,er,vender,j,1294,397,erían,target,venderían,
141,condition1,er,lamer,j,1270,398,eré,target,lameré,
141,condition1,ar,cortar,j,1283,399,aré,target,cortaré,
141,condition1,ir,bruvir,f,1822,400,iré,distractor,bruviré,
141,condition1,ar,vidar,f,1913,402,arán,distractor,vidarán,
141,condition1,ir,batir,j,1350,403,iremos,target,batiremos,
141,condition1,ir,mardir,f,1282,404,irían,distractor,mardirían,
141,condition1,er,barrer,j,1531,405,ería,target,barrería,
141,condition1,ir,gamir,f,1371,406,íamos,distractor,gamíamos,
141,condition1,ar,galar,f,2305,407,aría,distractor,galaría,
141,condition1,er,meter,j,1720,408,íamos,target,metíamos,
141,condition1,ir,cuarrir,f,1529,409,irás,distractor,cuarrirás,
141,condition1,ir,subir,j,1553,410,iremos,target,subiremos,
141,condition1,er,faner,f,1565,411,ías,distractor,fanías,
141,condition1,ar,fautrar,f,1809,412,arán,distractor,fautrarán,
141,condition1,ar,pavar,f,1686,413,ará,distractor,pavará,
141,condition1,er,lacher,f,2093,414,erían,distractor,lacherían,
141,condition1,ar,fautrar,f,4299,415,aría,distractor,fautraría,
141,condition1,ar,burrar,f,3103,416,aban,distractor,burraban,
141,condition1,er,raber,f,2881,417,ería,distractor,rabería,
141,condition1,ar,ciser,f,1394,418,ábamos,distractor,cisábamos,
141,condition1,er,clier,f,1307,419,ían,distractor,cliían,
141,condition1,ar,cenar,j,1866,420,aremos,target,cenaremos,
141,condition1,er,riter,f,4567,421,ían,distractor,ritían,
141,condition1,ar,formar,j,2048,422,aban,target,formaban,
141,condition1,ar,bigar,f,2406,423,arías,distractor,bigarías,
141,condition1,ar,lailar,f,2139,424,aban,distractor,lailaban,
141,condition1,er,morder,j,1708,425,eré,target,morderé,
141,condition1,ar,obrar,j,2747,426,arás,target,obrarás,
141,condition1,er,riter,f,2474,427,ía,distractor,ritía,
141,condition1,ir,gruñir,j,2486,428,ías,target,gruñías,
141,condition1,ar,filtrar,j,3490,429,arán,target,filtrarán,
141,condition1,ar,quijar,f,4080,430,aremos,distractor,quijaremos,
141,condition1,ar,bimar,f,2294,431,arían,distractor,bimarían,
141,condition1,ir,tujir,f,1509,432,iremos,distractor,tujiremos,
141,condition1,ar,samar,f,1397,433,aré,distractor,samaré,
141,condition1,ir,tuplir,f,1303,434,iríamos,distractor,tupliríamos,
141,condition1,er,ceder,j,1642,435,eremos,target,cederemos,
141,condition1,ar,vultar,f,1553,436,arías,distractor,vultarías,
141,condition1,ir,cichir,f,1348,437,irías,distractor,cichirías,
141,condition1,ar,rimar,j,1316,438,arían,target,rimarían,
141,condition1,ar,pavar,f,1428,439,aba,distractor,pavaba,
141,condition1,ar,rimar,j,1442,440,arán,target,rimarán,
141,condition1,ar,retar,j,1685,441,aba,target,retaba,
141,condition1,ar,pactar,j,1417,442,aré,target,pactaré,
141,condition1,ar,sumar,j,1462,443,aré,target,sumaré,
141,condition1,ir,gruñir,j,1419,444,iría,target,gruñiría,
141,condition1,ar,pactar,j,2521,445,ará,target,pactará,
141,condition1,ar,rayar,j,2540,446,arían,target,rayarían,
141,condition1,ar,hallar,j,2218,447,arán,target,hallarán,
141,condition1,ir,gruñir,j,1652,448,irás,target,gruñirás,
141,condition1,ar,zusar,f,1666,449,abas,distractor,zusabas,
141,condition1,ar,fautrar,f,2033,450,aremos,distractor,fautraremos,
141,condition1,ir,sufrir,j,2038,451,iría,target,sufriría,
141,condition1,ar,cetar,f,2811,452,aré,distractor,cetaré,
141,condition1,er,hier,f,2452,453,erás,distractor,hierás,
141,condition1,ar,maftar,f,1509,454,aremos,distractor,maftaremos,
141,condition1,ir,subir,j,1238,455,ías,target,subías,
141,condition1,ar,chanrar,f,1255,456,arán,distractor,chanrarán,
141,condition1,ir,subir,j,1261,457,ía,target,subía,
141,condition1,er,ceder,j,1328,458,erá,target,cederá,
141,condition1,ar,rondar,j,2296,459,aríamos,target,rondaríamos,
141,condition1,ar,faltar,j,1911,460,ará,target,faltará,
141,condition1,er,toser,j,1485,461,íamos,target,tosíamos,
141,condition1,ar,samar,f,3468,462,aríamos,distractor,samaríamos,
141,condition1,er,hier,f,3936,463,eríamos,distractor,hieríamos,
141,condition1,er,clier,f,1474,464,erá,distractor,clierá,
141,condition1,ar,hilar,j,1450,465,aré,target,hilaré,
141,condition1,ar,galar,f,1486,466,aré,distractor,galaré,
141,condition1,ar,hallar,j,3756,467,arías,target,hallarías,
141,condition1,er,tejer,j,1691,468,eríamos,target,tejeríamos,
141,condition1,ar,plantar,j,1908,469,aba,target,plantaba,
141,condition1,ar,quemar,j,2101,470,aba,target,quemaba,
141,condition1,er,faner,f,2859,471,erán,distractor,fanerán,
141,condition1,ar,lailar,f,1431,472,arán,distractor,lailarán,
141,condition1,ar,rondar,j,1391,473,arán,target,rondarán,
141,condition1,er,temer,j,1825,474,ía,target,temía,
141,condition1,er,ciper,f,1575,475,erá,distractor,ciperá,
141,condition1,ar,bailar,j,2114,476,aba,target,bailaba,
141,condition1,er,arder,j,1990,477,ían,target,ardían,
141,condition1,ar,fisar,f,1654,478,aba,distractor,fisaba,
141,condition1,er,arder,j,1226,479,erán,target,arderán,
141,condition1,er,creer,j,1315,480,erán,target,creerán,
141,condition1,er,correr,j,1204,481,ían,target,corrían,
141,condition1,ar,runar,f,1498,482,arán,distractor,runarán,
141,condition1,ar,hilar,j,2293,483,arían,target,hilarían,
141,condition1,er,seser,f,2452,484,ían,distractor,sesían,
141,condition1,er,clier,f,1283,485,íamos,distractor,cliíamos,
141,condition1,ar,filtrar,j,1686,486,aba,target,filtraba,
141,condition1,er,tejer,j,2565,487,ían,target,tejían,
141,condition1,er,cefler,f,2610,488,ería,distractor,ceflería,
141,condition1,er,meter,j,1462,489,ían,target,metían,
141,condition1,ir,cubrir,j,2126,490,ía,target,cubría,
141,condition1,er,ceder,j,3454,491,erían,target,cederían,
141,condition1,ar,cortar,j,1191,492,aría,target,cortaría,
141,condition1,er,frinder,f,1417,493,erían,distractor,frinderían,
141,condition1,er,seper,f,1687,494,ería,distractor,sepería,
141,condition1,ar,sauar,f,607,495,ábamos,distractor,sauábamos,
141,condition1,ar,tasar,f,1485,496,arían,target,tasarían,
141,condition1,ar,lorgar,f,1552,497,ará,distractor,lorgará,
141,condition1,er,riter,f,1574,498,eré,distractor,riteré,
141,condition1,er,honder,f,1315,499,erás,distractor,honderás,
141,condition1,er,porer,f,1699,500,erían,distractor,porerían,
141,condition1,ar,sindar,f,1955,501,arías,distractor,sindarías,
141,condition1,ar,fisar,f,2925,502,arás,distractor,fisarás,
141,condition1,ar,eplar,f,1709,503,aría,distractor,eplaría,
141,condition1,er,seper,f,2362,504,erían,distractor,seperían,
141,condition1,er,comer,j,1824,505,ías,target,comías,
141,condition1,er,ceder,j,3013,506,erás,target,cederás,
141,condition1,ar,lailar,f,1326,507,arás,distractor,lailarás,
141,condition1,ir,sufrir,j,1822,508,ían,target,sufrían,
141,condition1,ar,eplar,f,1531,509,arán,distractor,eplarán,
141,condition1,ar,limar,f,1552,510,arás,target,limarás,
141,condition1,ar,sumar,j,2407,511,arías,target,sumarías,
141,condition1,ar,sindar,f,1665,512,aban,distractor,sindaban,
141,condition1,ir,sufrir,j,1529,513,iríamos,target,sufriríamos,
141,condition1,ar,rotar,j,1519,514,aríamos,target,rotaríamos,
141,condition1,er,moncer,f,1295,515,erían,distractor,moncerían,
141,condition1,ar,rondar,j,1337,516,ábamos,target,rondábamos,
141,condition1,ar,plantar,j,1824,517,aban,target,plantaban,
141,condition1,er,frinder,f,1213,518,erás,distractor,frinderás,
141,condition1,er,riter,f,1251,519,eríamos,distractor,riteríamos,
141,condition1,ar,lailar,f,1314,520,aremos,distractor,lailaremos,
141,condition1,ar,quemar,j,1678,521,aban,target,quemaban,
141,condition1,ar,ciser,f,2473,522,aré,distractor,cisaré,
141,condition1,ar,limar,j,3173,523,aríamos,target,limaríamos,
141,condition1,ar,sindar,f,1552,524,arán,distractor,sindarán,
141,condition1,ir,mardir,f,2676,525,íamos,distractor,mardíamos,
141,condition1,ar,gachar,f,1804,526,arán,distractor,gacharán,
141,condition1,er,raber,j,2336,527,ían,distractor,rabían,
141,condition1,er,porer,f,1331,528,erá,distractor,porerá,
141,condition1,ar,rondar,j,2652,529,arías,target,rondarías,
141,condition1,er,toser,j,1599,530,erían,target,toserían,
141,condition1,ar,sauar,f,1483,531,arían,distractor,sauarían,
141,condition1,ar,maftar,f,2790,532,aría,distractor,maftaría,
141,condition1,er,raber,f,1372,533,erás,distractor,raberás,
141,condition1,ar,luchar,j,1982,534,aré,target,lucharé,
141,condition1,ar,besar,j,1415,535,aremos,target,besaremos,
141,condition1,er,seser,f,2521,536,erá,distractor,seserá,
141,condition1,ar,galar,f,2021,537,arías,distractor,galarías,
141,condition1,er,lacher,f,1554,538,ería,distractor,lachería,
141,condition1,er,tejer,j,1844,539,ías,target,tejías,
141,condition1,ar,obrar,j,1375,540,aremos,target,obraremos,
141,condition1,er,tejer,j,1707,541,erán,target,tejerán,
141,condition1,ar,hallar,j,2548,542,aría,target,hallaría,
141,condition1,ar,formar,j,1907,543,aríamos,target,formaríamos,
141,condition1,ar,samar,f,2227,544,aremos,distractor,samaremos,
141,condition1,ar,bigar,f,1754,545,aban,distractor,bigaban,
141,condition1,er,prender,j,2430,546,erá,target,prenderá,
141,condition1,er,prender,j,1439,547,ía,target,prendía,
141,condition1,ar,faltar,j,1327,548,aríamos,target,faltaríamos,
141,condition1,er,correr,j,1216,549,erán,target,correrán,
141,condition1,ir,tujir,j,1675,550,irías,distractor,tujirías,
141,condition1,ar,plantar,j,1880,551,ábamos,target,plantábamos,
141,condition1,ar,bimar,f,1440,552,aremos,distractor,bimaremos,
141,condition1,ar,eplar,f,1270,553,aremos,distractor,eplaremos,
141,condition1,er,moncer,f,1880,554,íamos,distractor,moncíamos,
141,condition1,er,clier,f,1551,555,ía,distractor,cliía,
141,condition1,ar,ciser,f,1890,556,arás,distractor,cisarás,
141,condition1,ar,fautrar,f,1237,557,abas,distractor,fautrabas,
141,condition1,er,comer,j,1371,558,erán,target,comerán,
141,condition1,ar,sindar,f,1508,559,aremos,distractor,sindaremos,
141,condition1,ar,cetar,f,1641,560,ábamos,distractor,cetábamos,
141,condition1,ar,runar,j,1532,561,aría,distractor,runaría,
141,condition1,ar,formar,j,1304,562,ará,target,formará,
141,condition1,ar,fautrar,f,1170,563,arías,distractor,fautrarías,
141,condition1,ar,rayar,j,1343,564,aríamos,target,rayaríamos,
141,condition1,er,meter,j,1278,565,erías,target,meterías,
141,condition1,ar,formar,j,2015,566,arás,target,formarás,
141,condition1,er,raber,f,1394,567,eremos,distractor,raberemos,
141,condition1,ar,lorgar,f,1933,568,arás,distractor,lorgarás,
141,condition1,ir,cumplir,j,1396,569,ían,target,cumplían,
141,condition1,ar,obrar,j,1460,570,aré,target,obraré,
141,condition1,ir,unir,j,1554,571,irías,target,unirías,
141,condition1,ir,sufrir,j,1686,572,irían,target,sufrirían,
141,condition1,ar,gunar,f,1281,573,aremos,distractor,gunaremos,
141,condition1,ir,bruvir,f,1575,574,irá,distractor,bruvirá,
141,condition1,ir,partir,j,1756,575,irán,target,partirán,
141,condition1,er,riter,f,1867,576,eremos,distractor,riteremos,
141,condition1,ir,unir,j,2217,577,irán,target,unirán,
141,condition1,ar,maftar,f,2307,578,aban,distractor,maftaban,
141,condition1,ar,fisar,f,1463,579,arían,distractor,fisarían,
141,condition1,er,barrer,j,1732,580,erían,target,barrerían,
141,condition1,ar,charlar,j,2271,581,arías,target,charlarías,
141,condition1,ir,cumplir,j,2004,582,irán,target,cumplirán,
141,condition1,er,raber,f,1574,583,erán,distractor,raberán,
141,condition1,ar,cetar,f,1440,584,aban,distractor,cetaban,
141,condition1,ir,cumplir,j,1293,585,irás,target,cumplirás,
141,condition1,er,coser,j,1553,586,eremos,target,coseremos,
141,condition1,er,temer,j,1562,587,erías,target,temerías,
141,condition1,ar,chanrar,f,1428,588,aríamos,distractor,chanraríamos,
141,condition1,ar,pavar,f,1891,589,arías,distractor,pavarías,
141,condition1,er,lacher,f,1384,590,íamos,distractor,lachíamos,
141,condition1,er,vender,j,1259,591,eré,target,venderé,
141,condition1,ar,ciser,f,1395,592,arían,distractor,cisarían,
141,condition1,ir,imir,f,1229,593,íamos,distractor,imíamos,
141,condition1,ir,cichir,f,1256,594,ías,distractor,cichías,
141,condition1,ir,tuplir,f,1283,595,ías,distractor,tuplías,
141,condition1,er,seper,f,1383,596,eremos,distractor,seperemos,
141,condition1,ar,jurar,j,1317,597,aría,target,juraría,
141,condition1,er,temer,j,1258,598,ían,target,temían,
141,condition1,er,somer,f,1236,599,ías,distractor,somías,
141,condition1,ar,clartar,f,1543,600,aremos,distractor,clartaremos,
141,condition1,er,vender,j,1405,602,ían,target,vendían,
141,condition1,er,tejer,j,1554,603,erás,target,tejerás,
141,condition1,ir,partir,j,1351,604,irá,target,partirá,
141,condition1,ar,filtrar,j,1326,605,arás,target,filtrarás,
141,condition1,er,toser,f,1417,606,ías,target,tosías,
141,condition1,er,barrer,j,1281,607,ía,target,barría,
141,condition1,ar,sauar,f,1377,608,arías,distractor,sauarías,
141,condition1,ar,cenar,j,1324,609,arían,target,cenarían,
141,condition1,ir,cubrir,j,1213,610,irá,target,cubrirá,
141,condition1,ar,quijar,f,1374,611,aban,distractor,quijaban,
141,condition1,ir,imir,f,1575,612,iría,distractor,imiría,
141,condition1,ar,sauar,f,1440,613,aba,distractor,sauaba,
141,condition1,ar,gachar,f,1348,614,aba,distractor,gachaba,
141,condition1,ar,focar,f,1441,615,arán,distractor,focarán,
141,condition1,ar,rotar,j,1213,616,arías,target,rotarías,
141,condition1,ar,rotar,j,1227,617,arían,target,rotarían,
141,condition1,ar,cortar,j,1275,618,ará,target,cortará,
141,condition1,ar,rotar,j,1367,619,abas,target,rotabas,
141,condition1,er,tañer,f,1237,620,eré,target,tañeré,
141,condition1,ir,sufrir,j,1486,621,irá,target,sufrirá,
141,condition1,ir,tujir,j,1271,622,íamos,distractor,tujíamos,
141,condition1,ir,tujir,f,1295,623,iríamos,distractor,tujiríamos,
141,condition1,ar,runar,f,1439,624,aré,distractor,runaré,
141,condition1,ar,rimar,j,1957,625,abas,target,rimabas,
141,condition1,er,meter,j,1620,626,erá,target,meterá,
141,condition1,er,clier,f,1394,627,erían,distractor,clierían,
141,condition1,er,comer,j,1170,628,eríamos,target,comeríamos,
141,condition1,er,ceder,j,1914,629,íamos,target,cedíamos,
141,condition1,er,meter,j,1238,630,ía,target,metía,
141,condition1,ar,jurar,j,1641,631,ábamos,target,jurábamos,
141,condition1,er,ciper,f,1823,632,eríamos,distractor,ciperíamos,
141,condition1,er,somer,j,1732,633,erás,distractor,somerás,
141,condition1,er,ceter,f,1777,634,erás,distractor,ceterás,
141,condition1,er,honder,f,1258,635,íamos,distractor,hondíamos,
141,condition1,ir,cichir,f,1351,636,iremos,distractor,cichiremos,
141,condition1,er,comer,j,2190,637,erá,target,comerá,
141,condition1,er,barrer,j,1238,638,eré,target,barreré,
141,condition1,ar,cenar,j,1696,639,ábamos,target,cenábamos,
141,condition1,ar,pactar,j,1663,640,arían,target,pactarían,
141,condition1,er,seser,f,1392,641,íamos,distractor,sesíamos,
141,condition1,ar,tasar,f,2067,642,aba,target,tasaba,
141,condition1,er,ciper,f,1281,643,erías,distractor,ciperías,
141,condition1,er,meter,j,2023,644,eremos,target,meteremos,
141,condition1,er,coser,j,1281,645,ían,target,cosían,
141,condition1,ar,rondar,j,1643,646,aremos,target,rondaremos,
141,condition1,er,hier,f,1270,647,ías,distractor,hiías,
141,condition1,ar,samar,f,2046,648,ábamos,distractor,samábamos,
141,condition1,ar,narrar,j,1979,649,aré,target,narraré,
141,condition1,ar,narrar,j,1427,650,aría,target,narraría,
141,condition1,ir,partir,j,1587,651,irías,target,partirías,
141,condition1,er,honder,f,4667,652,eremos,distractor,honderemos,
141,condition1,er,riter,f,1755,653,erían,distractor,riterían,
141,condition1,ar,cetar,f,1933,654,aba,distractor,cetaba,
141,condition1,ir,cumplir,j,1315,655,irían,target,cumplirían,
141,condition1,ar,cenar,j,1384,656,aban,target,cenaban,
141,condition1,ar,narrar,j,1360,657,aremos,target,narraremos,
141,condition1,ir,tuplir,f,1371,658,irías,distractor,tuplirías,
141,condition1,er,creer,j,1767,659,erían,target,creerían,
141,condition1,er,barrer,j,1485,660,erán,target,barrerán,
141,condition1,ar,luchar,j,1642,661,ará,target,luchará,
141,condition1,ir,luntir,f,2002,662,iríamos,distractor,luntiríamos,
141,condition1,ar,galar,j,2678,663,arían,distractor,galarían,
141,condition1,ar,pavar,f,3172,664,arás,distractor,pavarás,
141,condition1,ir,tujir,f,2496,665,irán,distractor,tujirán,
141,condition1,er,faner,f,3758,666,erías,distractor,fanerías,
141,condition1,ir,imir,f,2339,667,ías,distractor,imías,
141,condition1,ir,tujir,f,1979,668,irá,distractor,tujirá,
141,condition1,ar,quijar,f,1259,669,aría,distractor,quijaría,
141,condition1,ar,pavar,f,1168,670,aremos,distractor,pavaremos,
141,condition1,er,prender,j,1454,671,erán,target,prenderán,
141,condition1,er,coser,j,1315,672,eríamos,target,coseríamos,
141,condition1,ar,mertar,f,1374,673,arían,distractor,mertarían,
141,condition1,er,seper,j,1369,674,ía,distractor,sepía,
141,condition1,er,faner,f,1283,675,ían,distractor,fanían,
141,condition1,ar,bimar,f,1215,676,aría,distractor,bimaría,
141,condition1,ar,plantar,j,1215,677,abas,target,plantabas,
141,condition1,er,porer,f,1282,678,ías,distractor,porías,
141,condition1,ar,besar,j,1328,679,aban,target,besaban,
141,condition1,er,meter,j,1439,680,erás,target,meterás,
141,condition1,er,comer,j,1194,681,erías,target,comerías,
141,condition1,er,seper,f,1349,682,íamos,distractor,sepíamos,
141,condition1,ir,cuarrir,f,1237,683,iría,distractor,cuarriría,
141,condition1,er,leer,j,1328,684,eríamos,target,leeríamos,
141,condition1,er,barrer,j,2991,685,ías,target,barrías,
141,condition1,ar,bimar,f,1328,686,ábamos,distractor,bimábamos,
141,condition1,er,somer,f,1959,687,eré,distractor,someré,
141,condition1,er,ciper,f,1370,688,erás,distractor,ciperás,
141,condition1,ar,zusar,f,1237,689,ará,distractor,zusará,
141,condition1,er,correr,j,2195,690,erían,target,correrían,
141,condition1,er,lamer,f,1611,691,erán,target,lamerán,
141,condition1,ar,lorgar,f,1257,692,aba,distractor,lorgaba,
141,condition1,er,tejer,f,1530,693,erías,target,tejerías,
141,condition1,er,porer,f,1485,694,eríamos,distractor,poreríamos,
141,condition1,ar,ciser,f,1351,695,aban,distractor,cisaban,
141,condition1,er,barrer,j,1575,696,erá,target,barrerá,
141,condition1,er,hier,f,1708,697,eremos,distractor,hieremos,
141,condition1,ir,gamir,f,1281,698,irían,distractor,gamirían,
141,condition1,ar,hallar,j,1719,699,abas,target,hallabas,
141,condition1,ar,besar,j,1308,700,abas,target,besabas,
141,condition1,ir,cuarrir,f,1339,701,ían,distractor,cuarrían,
141,condition1,er,somer,f,1718,702,erías,distractor,somerías,
141,condition1,er,toser,j,1698,703,ía,target,tosía,
141,condition1,er,arder,j,1485,704,erá,target,arderá,
141,condition1,ir,subir,j,1395,705,irían,target,subirían,
141,condition1,ar,sumar,j,1868,706,arás,target,sumarás,
141,condition1,ar,lorgar,f,1822,707,aríamos,distractor,lorgaríamos,
141,condition1,ir,luntir,f,1506,708,ía,distractor,luntía,
141,condition1,er,creer,j,1688,709,eremos,target,creeremos,
141,condition1,ar,vidar,f,1303,710,aré,distractor,vidaré,
141,condition1,er,raber,j,1308,711,ía,distractor,rabía,
141,condition1,ar,runar,f,1504,712,arás,distractor,runarás,
141,condition1,er,moncer,f,1576,713,erán,distractor,moncerán,
141,condition1,er,leer,j,1329,714,erías,target,leerías,
141,condition1,ir,tujir,f,1458,715,ía,distractor,tujía,
141,condition1,ar,jurar,j,1689,716,aba,target,juraba,
141,condition1,er,comer,j,1799,717,erás,target,comerás,
141,condition1,ar,formar,j,1733,718,arán,target,formarán,
141,condition1,ar,rotar,f,1869,719,aban,target,rotaban,
141,condition1,ir,imir,f,1775,720,irán,distractor,imirán,
141,condition1,er,honder,f,1327,721,ía,distractor,hondía,
141,condition1,ar,quemar,j,1822,722,aré,target,quemaré,
141,condition1,ar,zusar,f,1530,723,ábamos,distractor,zusábamos,
141,condition1,er,anrer,f,1169,724,íamos,distractor,anríamos,
141,condition1,ar,formar,j,1418,725,ábamos,target,formábamos,
141,condition1,ar,plantar,j,1237,726,aré,target,plantaré,
141,condition1,ar,quemar,j,1451,727,arías,target,quemarías,
141,condition1,er,prender,j,1662,728,íamos,target,prendíamos,
141,condition1,er,porer,f,1240,729,erán,distractor,porerán,
141,condition1,ir,batir,j,1226,730,iré,target,batiré,
141,condition1,ar,hallar,j,1506,731,aríamos,target,hallaríamos,
141,condition1,ir,mardir,f,1238,732,iré,distractor,mardiré,
141,condition1,ar,clartar,f,1214,733,aba,distractor,clartaba,
141,condition1,ar,sumar,j,1733,734,aríamos,target,sumaríamos,
141,condition1,er,creer,j,1281,735,ían,target,creían,
141,condition1,er,leer,j,1170,736,ías,target,leías,
141,condition1,ar,bimar,f,1338,737,arás,distractor,bimarás,
141,condition1,ar,narrar,j,1239,738,arán,target,narrarán,
141,condition1,er,porer,f,1247,739,erás,distractor,porerás,
141,condition1,ar,dachar,f,1282,740,aba,distractor,dachaba,
141,condition1,ir,tuplir,f,1710,741,irás,distractor,tuplirás,
141,condition1,ar,sumar,j,1372,742,abas,target,sumabas,
141,condition1,er,barrer,j,1260,743,íamos,target,barríamos,
141,condition1,ar,durar,j,1281,744,aremos,target,duraremos,
141,condition1,ar,ciser,f,1399,745,aremos,distractor,cisaremos,
141,condition1,ir,fundir,j,1345,746,iremos,target,fundiremos,
141,condition1,er,leer,j,1287,747,ían,target,leían,
141,condition1,ar,galar,f,1234,748,aremos,distractor,galaremos,
141,condition1,ar,nadar,j,1239,749,aba,target,nadaba,
141,condition1,ar,obrar,j,1349,750,abas,target,obrabas,
141,condition1,ar,besar,j,1349,751,arían,target,besarían,
141,condition1,ar,mertar,f,1420,752,arán,distractor,mertarán,
141,condition1,er,hier,f,1168,753,ía,distractor,hiía,
141,condition1,er,meter,j,1214,754,eré,target,meteré,
141,condition1,ar,vultar,f,1259,755,aba,distractor,vultaba,
141,condition1,ar,quijar,f,1439,756,ábamos,distractor,quijábamos,
141,condition1,er,porer,f,1239,757,ían,distractor,porían,
141,condition1,ar,burrar,f,1439,758,aremos,distractor,burraremos,
141,condition1,ir,cubrir,j,1651,759,íamos,target,cubríamos,
141,condition1,er,tañer,f,1262,760,ía,target,tañía,
141,condition1,er,tejer,j,1899,761,eremos,target,tejeremos,
141,condition1,ar,burrar,f,1534,762,aría,distractor,burraría,
141,condition1,er,ciper,f,1655,763,ía,distractor,cipía,
141,condition1,ar,chanrar,f,1199,764,arías,distractor,chanrarías,
141,condition1,ir,batir,j,1371,765,irán,target,batirán,
141,condition1,ar,filtrar,j,1440,766,aríamos,target,filtraríamos,
141,condition1,ar,durar,j,1733,767,arían,target,durarían,
141,condition1,er,arder,j,1685,768,eríamos,target,arderíamos,
141,condition1,ar,bailar,j,1261,769,arás,target,bailarás,
141,condition1,ar,hallar,j,1699,770,aba,target,hallaba,
141,condition1,er,faner,f,1561,771,eremos,distractor,faneremos,
141,condition1,er,lacher,f,1394,772,ían,distractor,lachían,
141,condition1,ar,charlar,j,1465,773,ará,target,charlará,
141,condition1,ir,partir,j,1473,774,irían,target,partirían,
141,condition1,ar,charlar,j,1474,775,aban,target,charlaban,
141,condition1,ar,luchar,j,1279,776,aba,target,luchaba,
141,condition1,ar,obrar,j,1215,777,aría,target,obraría,
141,condition1,er,anrer,f,1238,778,erá,distractor,anrerá,
141,condition1,er,anrer,f,1217,779,ías,distractor,anrías,
141,condition1,ar,plantar,j,1258,780,arías,target,plantarías,
141,condition1,ir,batir,j,1464,781,ía,target,batía,
141,condition1,ar,mertar,f,1667,782,arías,distractor,mertarías,
141,condition1,ar,rondar,j,2225,783,aré,target,rondaré,
141,condition1,er,correr,j,1235,784,íamos,target,corríamos,
141,condition1,ar,luchar,j,1190,785,aban,target,luchaban,
141,condition1,er,seper,f,1666,786,erá,distractor,seperá,
141,condition1,ar,galar,f,1170,787,aban,distractor,galaban,
141,condition1,ar,hallar,j,1192,788,ará,target,hallará,
141,condition1,er,ceder,j,1330,789,erán,target,cederán,
141,condition1,er,lacher,f,1347,790,erías,distractor,lacherías,
141,condition1,er,frinder,f,1353,791,erá,distractor,frinderá,
141,condition1,ar,ciser,f,1278,792,aba,distractor,cisaba,
141,condition1,ir,cuarrir,f,1261,793,irá,distractor,cuarrirá,
141,condition1,ar,sauar,f,1507,794,arán,distractor,sauarán,
141,condition1,ir,cichir,f,1352,795,iría,distractor,cichiría,
141,condition1,ar,gachar,f,1345,796,abas,distractor,gachabas,
141,condition1,ar,runar,j,1396,797,arías,distractor,runarías,
141,condition1,er,vender,j,1756,798,erá,target,venderá,
141,condition1,ar,retar,j,1271,799,ará,target,retará,
141,condition1,er,raber,j,2216,800,íamos,distractor,rabíamos,
141,condition1,ar,pavar,f,2352,802,ábamos,distractor,pavábamos,
141,condition1,ar,vultar,f,1416,803,aré,distractor,vultaré,
141,condition1,ar,charlar,f,1281,804,arás,target,charlarás,
141,condition1,ar,dachar,f,1225,805,arás,distractor,dacharás,
141,condition1,ar,eplar,f,1171,806,ará,distractor,eplará,
141,condition1,er,faner,f,1385,807,íamos,distractor,faníamos,
141,condition1,er,cefler,f,1236,808,eríamos,distractor,cefleríamos,
141,condition1,er,toser,j,1282,809,ían,target,tosían,
141,condition1,er,ceder,f,1395,810,eríamos,target,cederíamos,
141,condition1,ar,bigar,f,1193,811,ará,distractor,bigará,
141,condition1,er,ceder,f,1438,812,ería,target,cedería,
141,condition1,er,temer,j,1350,813,erás,target,temerás,
141,condition1,er,creer,j,1396,814,ería,target,creería,
141,condition1,er,lacher,f,1281,815,erás,distractor,lacherás,
141,condition1,ar,fisar,f,1371,816,aban,distractor,fisaban,
141,condition1,ar,casar,j,1676,817,abas,target,casabas,
141,condition1,er,comer,j,1248,818,ían,target,comían,
141,condition1,ar,bailar,j,1373,819,arán,target,bailarán,
141,condition1,er,frinder,f,1461,820,ían,distractor,frindían,
141,condition1,ar,chanrar,f,1419,821,ará,distractor,chanrará,
141,condition1,ir,tujir,f,1462,822,ían,distractor,tujían,
141,condition1,ar,casar,j,1665,823,arías,target,casarías,
141,condition1,ar,lailar,f,1509,824,aría,distractor,lailaría,
141,condition1,ir,fundir,j,1594,825,ías,target,fundías,
141,condition1,er,porer,f,1577,826,erías,distractor,porerías,
141,condition1,er,correr,j,1642,827,ería,target,correría,
141,condition1,ar,tasar,f,1414,828,ábamos,target,tasábamos,
141,condition1,ar,maftar,f,1239,829,ábamos,distractor,maftábamos,
141,condition1,ir,batir,j,2094,830,irían,target,batirían,
141,condition1,ir,unir,j,1552,831,ían,target,unían,
141,condition1,er,arder,j,1529,832,eremos,target,arderemos,
141,condition1,ar,rayar,j,1465,833,arías,target,rayarías,
141,condition1,ar,bailar,j,1755,834,aría,target,bailaría,
141,condition1,er,barrer,j,1920,835,eremos,target,barreremos,
141,condition1,ir,luntir,f,2151,836,íamos,distractor,luntíamos,
141,condition1,ar,sumar,j,2428,837,aba,target,sumaba,
141,condition1,ir,unir,j,2531,838,iríamos,target,uniríamos,
141,condition1,er,morder,j,1563,839,ía,target,mordía,
141,condition1,ar,chanrar,f,1754,840,arían,distractor,chanrarían,
141,condition1,er,hier,f,1350,841,erían,distractor,hierían,
141,condition1,ir,partir,j,1484,842,iremos,target,partiremos,
141,condition1,ir,luntir,f,2318,843,irías,distractor,luntirías,
141,condition1,ar,nadar,j,1643,844,abas,target,nadabas,
141,condition1,er,lacher,f,2473,845,erán,distractor,lacherán,
141,condition1,ar,formar,j,1643,846,arían,target,formarían,
141,condition1,ar,clartar,f,2001,847,ábamos,distractor,clartábamos,
141,condition1,ar,chanrar,f,1936,848,aría,distractor,chanraría,
141,condition1,ar,fautrar,f,1326,849,aba,distractor,fautraba,
141,condition1,ar,jurar,j,1362,850,aríamos,target,juraríamos,
141,condition1,er,morder,j,1607,851,eremos,target,morderemos,
141,condition1,ir,subir,j,2183,852,iría,target,subiría,
141,condition1,er,raber,f,2205,853,erían,distractor,raberían,
141,condition1,er,faner,f,1868,854,eré,distractor,faneré,
141,condition1,ir,mardir,f,1349,855,ía,distractor,mardía,
141,condition1,ar,ciser,f,1415,856,ará,distractor,cisará,
141,condition1,ar,clartar,f,1961,857,aré,distractor,clartaré,
141,condition1,ar,sindar,f,2004,858,aba,distractor,sindaba,
141,condition1,ar,jurar,j,2720,859,aremos,target,juraremos,
141,condition1,er,vender,j,1892,860,erán,target,venderán,
141,condition1,ar,bimar,f,1258,861,ará,distractor,bimará,
141,condition1,er,anrer,f,1261,862,erías,distractor,anrerías,
141,condition1,ar,luchar,j,1416,863,arían,target,lucharían,
141,condition1,er,porer,f,1284,864,eré,distractor,poreré,
141,condition1,ar,clartar,f,1395,865,abas,distractor,clartabas,
141,condition1,ar,limar,f,2136,866,aremos,target,limaremos,
141,condition1,ar,sauar,f,1348,867,arás,distractor,sauarás,
141,condition1,er,creer,j,1800,868,ía,target,creía,
141,condition1,ar,filtrar,j,1297,869,aban,target,filtraban,
141,condition1,ar,faltar,j,1335,870,aría,target,faltaría,
141,condition1,er,porer,f,1484,871,ía,distractor,poría,
141,condition1,ar,bimar,f,1194,872,aban,distractor,bimaban,
141,condition1,ir,subir,j,1394,873,íamos,target,subíamos,
141,condition1,ir,imir,f,1508,874,iríamos,distractor,imiríamos,
141,condition1,ar,vultar,f,1677,875,arás,distractor,vultarás,
141,condition1,ar,lorgar,f,1517,876,ábamos,distractor,lorgábamos,
141,condition1,er,tañer,f,1225,877,ías,target,tañías,
141,condition1,ir,unir,j,1297,878,irá,target,unirá,
141,condition1,ir,batir,j,1414,879,irá,target,batirá,
141,condition1,ar,obrar,j,1777,880,aban,target,obraban,
141,condition1,ar,galar,f,1645,881,ábamos,distractor,galábamos,
141,condition1,ir,cuarrir,f,1819,882,ía,distractor,cuarría,
141,condition1,ar,rondar,j,2521,883,aban,target,rondaban,
141,condition1,er,frinder,f,1349,884,eríamos,distractor,frinderíamos,
141,condition1,er,tañer,f,1891,885,erías,target,tañerías,
141,condition1,ar,rimar,j,2024,886,aríamos,target,rimaríamos,
141,condition1,er,seser,f,1791,887,eríamos,distractor,seseríamos,
141,condition1,ar,narrar,j,1661,888,arías,target,narrarías,
141,condition1,ar,quijar,f,1755,889,arás,distractor,quijarás,
141,condition1,ar,limar,j,1720,890,ábamos,target,limábamos,
141,condition1,ar,faltar,j,1678,891,arían,target,faltarían,
141,condition1,ar,obrar,j,1505,892,aríamos,target,obraríamos,
141,condition1,ar,formar,j,1857,893,aremos,target,formaremos,
141,condition1,er,hier,f,1709,894,erá,distractor,hierá,
141,condition1,ar,casar,j,1864,895,aremos,target,casaremos,
141,condition1,ir,tuplir,f,1584,896,ían,distractor,tuplían,
141,condition1,ar,limar,f,1384,897,aría,target,limaría,
141,condition1,ar,quijar,f,2440,898,ará,distractor,quijará,
141,condition1,ar,dachar,f,1519,899,ábamos,distractor,dachábamos,
141,condition1,ir,bruvir,f,1754,900,iremos,distractor,bruviremos,
141,condition1,ir,cubrir,j,1778,901,iremos,target,cubriremos,
141,condition1,ir,fundir,j,1890,902,irás,target,fundirás,
141,condition1,ir,tujir,j,2060,903,iría,distractor,tujiría,
141,condition1,ir,cuarrir,f,1798,904,irían,distractor,cuarrirían,
141,condition1,er,somer,f,1406,905,ían,distractor,somían,
141,condition1,ar,vidar,f,1644,906,abas,distractor,vidabas,
141,condition1,er,prender,j,2498,907,ería,target,prendería,
141,condition1,ir,mardir,f,1481,908,irías,distractor,mardirías,
141,condition1,er,lamer,j,1642,909,ería,target,lamería,
141,condition1,ar,ciser,f,1508,910,arías,distractor,cisarías,
141,condition1,er,toser,f,1640,911,ería,target,tosería,
141,condition1,ar,fautrar,f,2227,912,aríamos,distractor,fautraríamos,
141,condition1,ir,fundir,j,2340,913,iría,target,fundiría,
141,condition1,ir,tuplir,f,1732,914,iría,distractor,tupliría,
141,condition1,ar,fisar,f,2135,915,ará,distractor,fisará,
141,condition1,ar,samar,f,1215,916,aba,distractor,samaba,
141,condition1,ar,plantar,j,1891,917,aremos,target,plantaremos,
141,condition1,ar,gunar,f,1415,918,arás,distractor,gunarás,
141,condition1,ir,subir,j,1724,919,irán,target,subirán,
141,condition1,ar,fautrar,f,1652,920,arás,distractor,fautrarás,
141,condition1,ar,fautrar,f,1464,921,aban,distractor,fautraban,
141,condition1,ar,cortar,j,2304,922,ábamos,target,cortábamos,
141,condition1,ir,cuarrir,f,1474,923,iremos,distractor,cuarriremos,
141,condition1,ar,bailar,j,1642,924,aríamos,target,bailaríamos,
141,condition1,er,faner,f,2193,925,erás,distractor,fanerás,
141,condition1,er,ceder,j,2126,926,eré,target,cederé,
141,condition1,ar,galar,f,1284,927,ará,distractor,galará,
141,condition1,ir,batir,j,2156,928,ías,target,batías,
141,condition1,er,ceter,f,2273,929,íamos,distractor,cetíamos,
141,condition1,er,prender,f,2611,930,eré,target,prenderé,
141,condition1,ar,mertar,f,1934,931,abas,distractor,mertabas,
141,condition1,ar,plantar,j,1240,932,aría,target,plantaría,
141,condition1,ar,rayar,j,2033,933,abas,target,rayabas,
141,condition1,ar,chanrar,f,2058,934,aban,distractor,chanraban,
141,condition1,ir,luntir,f,1619,935,ías,distractor,luntías,
141,condition1,er,lamer,j,1440,936,ías,target,lamías,
141,condition1,er,anrer,f,1597,937,ía,distractor,anría,
141,condition1,ar,samar,f,1619,938,abas,distractor,samabas,
141,condition1,ir,partir,j,1350,939,ías,target,partías,
141,condition1,ar,retar,j,1620,940,aríamos,target,retaríamos,
141,condition1,ar,rayar,j,1723,941,arán,target,rayarán,
141,condition1,ar,hilar,j,1765,942,arías,target,hilarías,
141,condition1,ir,tujir,f,1575,943,ías,distractor,tujías,
141,condition1,ir,sufrir,j,1597,944,ía,target,sufría,
141,condition1,ar,gachar,f,2779,945,aré,distractor,gacharé,
141,condition1,ar,focar,f,1450,946,aré,distractor,focaré,
141,condition1,er,temer,j,1756,947,eré,target,temeré,
141,condition1,ar,casar,j,1598,948,aba,target,casaba,
141,condition1,er,riter,f,1350,949,ías,distractor,ritías,
141,condition1,ar,focar,f,1598,950,ábamos,distractor,focábamos,
141,condition1,ir,unir,j,1368,951,iremos,target,uniremos,
141,condition1,ar,pavar,f,1506,952,arán,distractor,pavarán,
141,condition1,er,somer,f,2366,953,erían,distractor,somerían,
141,condition1,er,porer,f,1933,954,eremos,distractor,poreremos,
141,condition1,er,seper,f,1395,955,eríamos,distractor,seperíamos,
141,condition1,er,temer,f,2160,956,erá,target,temerá,
141,condition1,er,somer,f,1396,957,eremos,distractor,someremos,
141,condition1,er,frinder,f,1235,958,erán,distractor,frinderán,
141,condition1,er,moncer,f,1555,959,eré,distractor,monceré,
141,condition1,ar,rondar,j,1667,960,ará,target,rondará,
141,condition1,er,honder,f,1323,961,ían,distractor,hondían,
141,condition1,ar,galar,f,1646,962,arás,distractor,galarás,
141,condition1,ar,maftar,f,1547,963,ará,distractor,maftará,
141,condition1,ar,jurar,j,1709,964,aban,target,juraban,
141,condition1,er,barrer,j,2590,965,erás,target,barrerás,
141,condition1,er,coser,j,2002,966,íamos,target,cosíamos,
141,condition1,ir,unir,j,1618,967,iría,target,uniría,
141,condition1,ar,bailar,j,1217,968,ábamos,target,bailábamos,
141,condition1,er,somer,f,2427,969,ería,distractor,somería,
141,condition1,ar,filtrar,j,2161,970,ará,target,filtrará,
141,condition1,er,faner,f,1238,971,erá,distractor,fanerá,
141,condition1,er,ceter,f,1640,972,erán,distractor,ceterán,
141,condition1,er,seper,f,1754,973,ías,distractor,sepías,
141,condition1,ar,burrar,f,1799,974,abas,distractor,burrabas,
141,condition1,er,tañer,f,1327,975,erán,target,tañerán,
141,condition1,ar,focar,f,2654,976,aría,distractor,focaría,
141,condition1,ar,sauar,f,2318,977,aremos,distractor,sauaremos,
141,condition1,ir,gamir,f,1509,978,irán,distractor,gamirán,
141,condition1,ar,zusar,f,1507,979,aríamos,distractor,zusaríamos,
141,condition1,ar,quemar,j,1563,980,arían,target,quemarían,
141,condition1,er,anrer,f,1967,981,ían,distractor,anrían,
141,condition1,ar,clartar,f,1598,982,aríamos,distractor,clartaríamos,
141,condition1,ar,burrar,f,1822,983,arían,distractor,burrarían,
141,condition1,er,creer,j,1554,984,erás,target,creerás,
141,condition1,ar,pactar,f,2090,985,ábamos,target,pactábamos,
141,condition1,er,anrer,f,1172,986,eré,distractor,anreré,
141,condition1,ar,gachar,f,1260,987,ará,distractor,gachará,
141,condition1,ir,cichir,f,2136,988,irá,distractor,cichirá,
141,condition1,ir,gamir,f,1665,989,iremos,distractor,gamiremos,
141,condition1,ar,rimar,j,2070,990,aban,target,rimaban,
141,condition1,ar,narrar,j,1709,991,ará,target,narrará,
141,condition1,ir,cichir,f,1395,992,ía,distractor,cichía,
141,condition1,ar,chanrar,f,1983,993,aremos,distractor,chanraremos,
141,condition1,ar,focar,f,2854,994,arías,distractor,focarías,
141,condition1,ar,gunar,f,1734,995,ará,distractor,gunará,
141,condition1,ar,fisar,f,2878,996,arías,distractor,fisarías,
141,condition1,er,ciper,f,2318,997,ías,distractor,cipías,
141,condition1,er,coser,j,1465,998,ería,target,cosería,
141,condition1,ar,fautrar,f,1494,999,ábamos,distractor,fautrábamos,
141,condition1,er,coser,j,1764,1000,erían,target,coserían,
141,condition1,ar,rondar,j,1803,1002,aba,target,rondaba,
141,condition1,er,temer,j,2112,1003,erán,target,temerán,
141,condition1,ir,unir,j,1711,1004,irían,target,unirían,
141,condition1,ar,zusar,f,1193,1005,aban,distractor,zusaban,
141,condition1,ar,pactar,j,1348,1006,aría,target,pactaría,
141,condition1,ar,quemar,j,1262,1007,arás,target,quemarás,
141,condition1,ar,narrar,j,1685,1008,arás,target,narrarás,
141,condition1,ar,formar,j,1686,1009,aré,target,formaré,
141,condition1,ar,narrar,j,1809,1010,aríamos,target,narraríamos,
141,condition1,ir,imir,f,1453,1011,irían,distractor,imirían,
141,condition1,ar,filtrar,j,1620,1012,arías,target,filtrarías,
141,condition1,ir,fundir,j,1439,1013,irías,target,fundirías,
141,condition1,ar,cetar,f,1621,1014,ará,distractor,cetará,
141,condition1,ar,ciser,f,1392,1015,arán,distractor,cisarán,
141,condition1,ir,bruvir,f,1330,1016,ía,distractor,bruvía,
141,condition1,ar,pactar,j,1530,1017,aríamos,target,pactaríamos,
141,condition1,er,tejer,j,1439,1018,eré,target,tejeré,
141,condition1,ar,rondar,j,1305,1019,arían,target,rondarían,
141,condition1,ar,faltar,j,1487,1020,aban,target,faltaban,
141,condition1,ar,zusar,f,1258,1021,arían,distractor,zusarían,
141,condition1,ar,quemar,j,1709,1022,aríamos,target,quemaríamos,
141,condition1,ar,narrar,j,1374,1023,aban,target,narraban,
141,condition1,ir,gamir,f,1258,1024,ías,distractor,gamías,
141,condition1,ir,partir,j,1329,1025,ían,target,partían,
141,condition1,er,morder,j,1537,1026,eríamos,target,morderíamos,
141,condition1,ar,limar,j,1430,1027,abas,target,limabas,
141,condition1,ar,formar,j,1238,1028,aba,target,formaba,
141,condition1,ar,bailar,j,1191,1029,abas,target,bailabas,
141,condition1,er,ceder,j,1261,1030,ías,target,cedías,
141,condition1,er,frinder,f,1505,1031,ías,distractor,frindías,
141,condition1,ar,nadar,j,1192,1032,arán,target,nadarán,
141,condition1,ar,vultar,f,1452,1033,aría,distractor,vultaría,
141,condition1,ar,faltar,j,1409,1034,arías,target,faltarías,
141,condition1,ar,rotar,j,1210,1035,aremos,target,rotaremos,
141,condition1,er,riter,f,1237,1036,erá,distractor,riterá,
141,condition1,ar,cortar,j,1304,1037,arás,target,cortarás,
141,condition1,er,prender,j,1756,1038,erás,target,prenderás,
141,condition1,ar,dachar,f,1622,1039,aremos,distractor,dacharemos,
141,condition1,ar,narrar,j,2111,1040,arían,target,narrarían,
141,condition1,ir,cuarrir,f,1259,1041,íamos,distractor,cuarríamos,
141,condition1,ar,retar,j,1958,1042,ábamos,target,retábamos,
141,condition1,er,cefler,f,1306,1043,eré,distractor,cefleré,
141,condition1,ir,fundir,j,1236,1044,ía,target,fundía,
141,condition1,ir,tuplir,f,1665,1045,ía,distractor,tuplía,
141,condition1,ir,cumplir,j,1689,1046,irías,target,cumplirías,
141,condition1,ar,sindar,f,1743,1047,aríamos,distractor,sindaríamos,
141,condition1,er,prender,j,1799,1048,erías,target,prenderías,
141,condition1,ar,vidar,f,1259,1049,arás,distractor,vidarás,
141,condition1,ar,charlar,j,1543,1050,abas,target,charlabas,
141,condition1,ar,retar,j,1933,1051,arían,target,retarían,
141,condition1,er,moncer,f,1505,1052,ía,distractor,moncía,
141,condition1,ir,cumplir,j,1352,1053,ía,target,cumplía,
141,condition1,ar,faltar,j,1352,1054,abas,target,faltabas,
141,condition1,er,seser,f,1259,1055,ería,distractor,sesería,
141,condition1,ar,gunar,f,1439,1056,aría,distractor,gunaría,
141,condition1,er,comer,j,1304,1057,erían,target,comerían,
141,condition1,er,faner,f,1441,1058,eríamos,distractor,faneríamos,
141,condition1,ar,rayar,j,1350,1059,aré,target,rayaré,
141,condition1,er,moncer,f,1260,1060,ería,distractor,moncería,
141,condition1,er,creer,j,1528,1061,erá,target,creerá,
141,condition1,er,vender,j,1757,1062,ería,target,vendería,
141,condition1,ar,bigar,f,1417,1063,aremos,distractor,bigaremos,
141,condition1,ar,bimar,f,2182,1064,arías,distractor,bimarías,
141,condition1,ar,mertar,f,1415,1065,arás,distractor,mertarás,
141,condition1,er,temer,j,1238,1066,ías,target,temías,
141,condition1,ar,retar,j,1283,1067,aban,target,retaban,
141,condition1,ar,obrar,j,1325,1068,ábamos,target,obrábamos,
141,condition1,er,clier,f,1708,1069,eremos,distractor,clieremos,
141,condition1,ar,galar,f,1823,1070,abas,distractor,galabas,
141,condition1,ir,cubrir,j,1958,1071,ían,target,cubrían,
141,condition1,ar,hallar,j,1282,1072,arás,target,hallarás,
141,condition1,ar,zusar,f,2955,1073,aré,distractor,zusaré,
141,condition1,er,vender,j,1329,1074,eríamos,target,venderíamos,
141,condition1,er,clier,f,1562,1075,eré,distractor,clieré,
141,condition1,er,seser,f,1983,1076,erías,distractor,seserías,
141,condition1,er,toser,j,1531,1077,eríamos,target,toseríamos,
141,condition1,er,cefler,f,1438,1078,ía,distractor,ceflía,
141,condition1,er,coser,j,1663,1079,erá,target,coserá,
141,condition1,ir,luntir,f,1465,1080,irían,distractor,luntirían,
141,condition1,er,comer,j,1235,1081,ía,target,comía,
141,condition1,ar,zusar,f,1203,1082,arán,distractor,zusarán,
141,condition1,ar,jurar,j,1213,1083,ará,target,jurará,
141,condition1,ar,burrar,f,1474,1084,aré,distractor,burraré,
141,condition1,ir,cubrir,j,2126,1085,iré,target,cubriré,
141,condition1,ar,bailar,j,2687,1086,arías,target,bailarías,
141,condition1,ar,focar,f,2833,1087,aríamos,distractor,focaríamos,
141,condition1,er,coser,j,2117,1088,erás,target,coserás,
141,condition1,ar,durar,j,1368,1089,arás,target,durarás,
141,condition1,ar,gachar,f,1732,1090,ábamos,distractor,gachábamos,
141,condition1,ar,cenar,j,1822,1091,ará,target,cenará,
141,condition1,ar,durar,j,1571,1092,ábamos,target,durábamos,
141,condition1,er,cefler,f,3446,1093,ían,distractor,ceflían,
141,condition1,er,correr,j,1348,1094,eríamos,target,correríamos,
141,condition1,ar,gunar,f,1495,1095,arías,distractor,gunarías,
141,condition1,er,barrer,j,1698,1096,ían,target,barrían,
141,condition1,ar,rotar,j,1779,1097,arás,target,rotarás,
141,condition1,ar,pactar,j,1352,1098,arán,target,pactarán,
141,condition1,ar,jurar,j,1933,1099,abas,target,jurabas,
141,condition1,er,creer,j,1640,1100,erías,target,creerías,
141,condition1,er,anrer,f,1894,1101,eremos,distractor,anreremos,
141,condition1,ar,burrar,f,1549,1102,arán,distractor,burrarán,
141,condition1,er,leer,j,1168,1103,íamos,target,leíamos,
141,condition1,er,correr,j,1802,1104,erás,target,correrás,
141,condition1,er,seser,f,1417,1105,erán,distractor,seserán,
141,condition1,ar,rayar,j,2105,1106,aría,target,rayaría,
141,condition1,ar,tasar,f,1325,1107,aríamos,target,tasaríamos,
141,condition1,ar,quemar,j,1848,1108,arán,target,quemarán,
141,condition1,ar,hallar,j,1424,1109,aré,target,hallaré,
141,condition1,ar,luchar,j,1396,1110,aría,target,lucharía,
141,condition1,ir,batir,j,1519,1111,irías,target,batirías,
141,condition1,ar,quemar,j,1520,1112,abas,target,quemabas,
141,condition1,ar,bigar,f,1484,1113,aré,distractor,bigaré,
141,condition1,er,ciper,f,1438,1114,íamos,distractor,cipíamos,
141,condition1,ar,eplar,f,1226,1115,aban,distractor,eplaban,
141,condition1,ar,rotar,j,1236,1116,ábamos,target,rotábamos,
141,condition1,ar,jurar,j,1608,1117,arás,target,jurarás,
141,condition1,ar,quemar,j,1854,1118,aremos,target,quemaremos,
141,condition1,ar,fautrar,f,2568,1119,aré,distractor,fautraré,
141,condition1,ar,gunar,f,2138,1120,aba,distractor,gunaba,
141,condition1,ir,gruñir,j,2821,1121,irías,target,gruñirías,
141,condition1,er,comer,j,1394,1122,íamos,target,comíamos,
141,condition1,ar,luchar,j,1418,1123,arán,target,lucharán,
141,condition1,ar,faltar,j,1372,1124,ábamos,target,faltábamos,
141,condition1,er,lamer,j,1395,1125,erá,target,lamerá,
141,condition1,ar,quijar,j,2071,1126,abas,distractor,quijabas,
141,condition1,ar,filtrar,j,1438,1127,aré,target,filtraré,
141,condition1,ar,dachar,f,2699,1128,aban,distractor,dachaban,
141,condition1,ir,gruñir,j,1462,1129,iré,target,gruñiré,
141,condition1,er,prender,j,1275,1130,ían,target,prendían,
141,condition1,ar,tasar,f,1222,1131,abas,target,tasabas,
141,condition1,ar,cetar,f,1327,1132,abas,distractor,cetabas,
141,condition1,ar,lailar,f,1218,1133,aré,distractor,lailaré,
141,condition1,ir,mardir,f,1415,1134,irás,distractor,mardirás,
141,condition1,ar,quemar,j,1226,1135,ará,target,quemará,
141,condition1,er,meter,j,2578,1136,erán,target,meterán,
141,condition1,ir,bruvir,f,1393,1137,irás,distractor,bruvirás,
141,condition1,er,prender,j,1600,1138,eremos,target,prenderemos,
141,condition1,ir,fundir,j,1327,1139,irían,target,fundirían,
141,condition1,ar,clartar,f,1281,1140,ará,distractor,clartará,
141,condition1,ar,cortar,j,1281,1141,aríamos,target,cortaríamos,
141,condition1,ar,quijar,f,1420,1142,aríamos,distractor,quijaríamos,
141,condition1,ar,limar,j,1461,1143,aban,target,limaban,
141,condition1,ar,burrar,j,1720,1144,arías,distractor,burrarías,
141,condition1,ir,gamir,f,1405,1145,ía,distractor,gamía,
141,condition1,ar,clartar,f,1282,1146,arías,distractor,clartarías,
141,condition1,ar,sumar,f,1847,1147,arían,target,sumarían,
141,condition1,ar,cortar,j,1236,1148,aban,target,cortaban,
141,condition1,ar,eplar,f,1224,1149,aré,distractor,eplaré,
141,condition1,er,cefler,f,1195,1150,eremos,distractor,cefleremos,
141,condition1,ar,burrar,f,1697,1151,arás,distractor,burrarás,
141,condition1,ar,maftar,f,1272,1152,aré,distractor,maftaré,
141,condition1,ar,gunar,f,1359,1153,arían,distractor,gunarían,
141,condition1,ar,sindar,f,1757,1154,ábamos,distractor,sindábamos,
141,condition1,ir,subir,j,2048,1155,irá,target,subirá,
141,condition1,er,creer,j,1494,1156,eré,target,creeré,
141,condition1,ar,burrar,f,2351,1157,ábamos,distractor,burrábamos,
141,condition1,er,anrer,f,1620,1158,ería,distractor,anrería,
141,condition1,er,vender,j,2183,1159,erás,target,venderás,
141,condition1,ar,nadar,j,1733,1160,aremos,target,nadaremos,
141,condition1,ar,vultar,f,1550,1161,aríamos,distractor,vultaríamos,
141,condition1,ir,fundir,j,1846,1162,iré,target,fundiré,
141,condition1,er,morder,j,1241,1163,erás,target,morderás,
141,condition1,ar,hilar,f,2010,1164,arán,target,hilarán,
141,condition1,er,leer,j,2125,1165,erían,target,leerían,
141,condition1,ar,filtrar,j,1730,1166,aremos,target,filtraremos,
141,condition1,ar,casar,j,2589,1167,arán,target,casarán,
141,condition1,ar,dachar,f,1442,1168,aríamos,distractor,dacharíamos,
141,condition1,ar,gunar,f,1413,1169,aríamos,distractor,gunaríamos,
141,condition1,ar,vidar,f,1484,1170,ará,distractor,vidará,
141,condition1,ir,cuarrir,f,1957,1171,irías,distractor,cuarrirías,
141,condition1,ir,imir,f,1485,1172,iremos,distractor,imiremos,
141,condition1,ir,gruñir,j,1596,1173,íamos,target,gruñíamos,
141,condition1,ar,tasar,f,1553,1174,arán,target,tasarán,
141,condition1,ir,cuarrir,f,2608,1175,iríamos,distractor,cuarriríamos,
141,condition1,er,ciper,f,1665,1176,erían,distractor,ciperían,
141,condition1,ir,gamir,f,1509,1177,iré,distractor,gamiré,
141,condition1,ar,dachar,f,1281,1178,abas,distractor,dachabas,
141,condition1,ar,chanrar,f,2068,1179,abas,distractor,chanrabas,
141,condition1,er,prender,j,1375,1180,ías,target,prendías,
141,condition1,ar,mertar,f,1471,1181,aría,distractor,mertaría,
141,condition1,er,coser,f,1609,1182,ías,target,cosías,
141,condition1,ar,vultar,f,1279,1183,arán,distractor,vultarán,
141,condition1,ar,sumar,j,1285,1184,ará,target,sumará,
141,condition1,er,morder,j,1214,1185,erá,target,morderá,
141,condition1,ir,batir,j,1395,1186,ían,target,batían,
141,condition1,ar,runar,f,1577,1187,aban,distractor,runaban,
141,condition1,er,ciper,f,1572,1188,ían,distractor,cipían,
141,condition1,ir,luntir,f,1236,1189,irán,distractor,luntirán,
141,condition1,ar,bimar,f,1207,1190,arán,distractor,bimarán,
141,condition1,ar,faltar,j,1767,1191,arán,target,faltarán,
141,condition1,ir,bruvir,f,1279,1192,íamos,distractor,bruvíamos,
141,condition1,ar,focar,f,2250,1193,aba,distractor,focaba,
141,condition1,er,arder,j,1979,1194,erían,target,arderían,
141,condition1,ar,cetar,f,1868,1195,arás,distractor,cetarás,
141,condition1,er,correr,j,1461,1196,erá,target,correrá,
141,condition1,ar,cortar,j,1980,1197,abas,target,cortabas,
141,condition1,ir,imir,f,1508,1198,ía,distractor,imía,
141,condition1,er,tañer,f,2101,1199,eríamos,target,tañeríamos,
141,condition1,ar,durar,j,2320,1200,aba,target,duraba,
141,condition1,ar,gachar,f,2107,1202,arían,distractor,gacharían,
141,condition1,ir,imir,f,1234,1203,irás,distractor,imirás,
141,condition1,ar,obrar,j,1395,1204,arían,target,obrarían,
141,condition1,ir,tuplir,f,1170,1205,iremos,distractor,tupliremos,
141,condition1,ar,vultar,f,1396,1206,aremos,distractor,vultaremos,
141,condition1,ar,vultar,f,1306,1207,abas,distractor,vultabas,
141,condition1,ar,besar,j,2272,1208,aríamos,target,besaríamos,
141,condition1,er,coser,j,1238,1209,eré,target,coseré,
141,condition1,ir,unir,j,1292,1210,irás,target,unirás,
141,condition1,ar,zusar,f,1598,1211,aremos,distractor,zusaremos,
141,condition1,er,hier,f,1539,1212,ían,distractor,hiían,
141,condition1,er,raber,f,1487,1213,erá,distractor,raberá,
141,condition1,ar,maftar,f,1328,1214,arían,distractor,maftarían,
141,condition1,ar,cortar,j,1327,1215,arán,target,cortarán,
141,condition1,er,meter,j,2654,1216,ería,target,metería,
141,condition1,ir,subir,j,1440,1217,irías,target,subirías,
141,condition1,ir,bruvir,f,1486,1218,ías,distractor,bruvías,
141,condition1,er,clier,f,1397,1219,erás,distractor,clierás,
141,condition1,er,seper,f,1642,1220,erán,distractor,seperán,
141,condition1,ar,eplar,f,1350,1221,arás,distractor,eplarás,
141,condition1,ir,mardir,f,1324,1222,irán,distractor,mardirán,
141,condition1,ar,formar,j,2318,1223,arías,target,formarías,
141,condition1,er,tañer,f,3127,1224,ería,target,tañería,
141,condition1,er,coser,j,1439,1225,erán,target,coserán,
141,condition1,ar,galar,f,1240,1226,aba,distractor,galaba,
141,condition1,er,hier,f,1303,1227,erán,distractor,hierán,
141,condition1,er,cefler,f,1439,1228,erías,distractor,ceflerías,
141,condition1,ar,pactar,f,1327,1229,aremos,target,pactaremos,
141,condition1,ar,hallar,j,1406,1230,ábamos,target,hallábamos,
141,condition1,er,riter,f,2757,1231,erás,distractor,riterás,
141,condition1,ar,fautrar,f,3353,1232,arían,distractor,fautrarían,
141,condition1,ar,limar,f,2112,1233,ará,target,limará,
141,condition1,ir,cubrir,j,1643,1234,iríamos,target,cubriríamos,
141,condition1,er,honder,f,2137,1235,erías,distractor,honderías,
141,condition1,ar,besar,j,1486,1236,aré,target,besaré,
141,condition1,ir,cubrir,j,2217,1237,irás,target,cubrirás,
141,condition1,ar,quemar,j,4295,1238,aría,target,quemaría,
141,condition1,ar,casar,j,2375,1239,ábamos,target,casábamos,
141,condition1,ar,gachar,j,1541,1240,aríamos,distractor,gacharíamos,
141,condition1,ar,besar,j,1495,1241,arás,target,besarás,
141,condition1,ar,luchar,j,1415,1242,arás,target,lucharás,
141,condition1,ar,pactar,j,1351,1243,arías,target,pactarías,
141,condition1,er,seper,f,1395,1244,erás,distractor,seperás,
141,condition1,ir,mardir,f,1347,1245,irá,distractor,mardirá,
141,condition1,ar,hallar,j,2880,1246,aremos,target,hallaremos,
141,condition1,ar,bigar,f,1463,1247,aríamos,distractor,bigaríamos,
141,condition1,ar,filtrar,j,1280,1248,arían,target,filtrarían,
141,condition1,er,seser,f,1282,1249,erás,distractor,seserás,
141,condition1,ar,plantar,j,1756,1250,ará,target,plantará,
141,condition1,ir,cumplir,j,1258,1251,íamos,target,cumplíamos,
141,condition1,er,tejer,f,1238,1252,ería,target,tejería,
141,condition1,er,ceter,f,1553,1253,eré,distractor,ceteré,
141,condition1,ar,filtrar,j,1303,1254,aría,target,filtraría,
141,condition1,er,lacher,f,1374,1255,eré,distractor,lacheré,
141,condition1,ar,lorgar,f,1483,1256,aban,distractor,lorgaban,
141,condition1,ar,retar,j,1508,1257,aré,target,retaré,
141,condition1,ar,mertar,f,1518,1258,aremos,distractor,mertaremos,
141,condition1,er,prender,j,1451,1259,eríamos,target,prenderíamos,
141,condition1,ar,tasar,f,3644,1260,aremos,target,tasaremos,
141,condition1,er,ciper,f,3049,1261,eremos,distractor,ciperemos,
141,condition1,ar,vultar,f,1498,1262,arían,distractor,vultarían,
141,condition1,ir,cubrir,j,1933,1263,iría,target,cubriría,
141,condition1,ar,rimar,j,2634,1264,aré,target,rimaré,
141,condition1,ar,eplar,f,1281,1265,abas,distractor,eplabas,
141,condition1,ar,hilar,f,1326,1266,aba,target,hilaba,
141,condition1,ar,vidar,f,1688,1267,aban,distractor,vidaban,
141,condition1,ar,nadar,j,1666,1268,aré,target,nadaré,
141,condition1,ar,dachar,f,1294,1269,aré,distractor,dacharé,
141,condition1,ar,eplar,f,1180,1270,aba,distractor,eplaba,
141,condition1,ir,cumplir,j,1282,1271,irá,target,cumplirá,
141,condition1,ar,rondar,j,1418,1272,abas,target,rondabas,
141,condition1,ar,quijar,f,1326,1273,arías,distractor,quijarías,
141,condition1,er,clier,f,1192,1274,erías,distractor,clierías,
141,condition1,er,barrer,j,1641,1275,erías,target,barrerías,
141,condition1,ir,imir,f,1575,1276,irías,distractor,imirías,
141,condition1,ar,cetar,f,1418,1277,aríamos,distractor,cetaríamos,
141,condition1,ar,obrar,j,1259,1278,arán,target,obrarán,
141,condition1,ir,gruñir,j,1642,1279,irían,target,gruñirían,
141,condition1,ar,sauar,f,1328,1280,aríamos,distractor,sauaríamos,
141,condition1,er,tejer,j,1483,1281,erían,target,tejerían,
141,condition1,ar,maftar,f,1980,1282,arás,distractor,maftarás,
141,condition1,ar,chanrar,f,1282,1283,aba,distractor,chanraba,
141,condition1,ar,maftar,f,1326,1284,abas,distractor,maftabas,
141,condition1,ar,sumar,j,1486,1285,aría,target,sumaría,
141,condition1,ar,rayar,j,2092,1286,aban,target,rayaban,
141,condition1,er,somer,f,1293,1287,eríamos,distractor,someríamos,
141,condition1,er,meter,j,1204,1288,ías,target,metías,
141,condition1,ir,gamir,f,1306,1289,iríamos,distractor,gamiríamos,
141,condition1,ir,sufrir,j,1485,1290,irás,target,sufrirás,
141,condition1,er,vender,j,2722,1291,erías,target,venderías,
141,condition1,ar,durar,j,2519,1292,abas,target,durabas,
141,condition1,er,barrer,j,1305,1293,eríamos,target,barreríamos,
141,condition1,ir,luntir,f,1550,1294,iré,distractor,luntiré,
141,condition1,ar,gunar,f,1578,1295,abas,distractor,gunabas,
141,condition1,er,vender,j,1292,1296,ías,target,vendías,
141,condition1,er,clier,f,1227,1297,erán,distractor,clierán,
141,condition1,er,tañer,f,1890,1298,erás,target,tañerás,
141,condition1,ar,pavar,f,1237,1299,aré,distractor,pavaré,
141,condition1,ar,dachar,f,2081,1300,arías,distractor,dacharías,
141,condition1,ir,tujir,f,1518,1301,irían,distractor,tujirían,
141,condition1,er,clier,f,1192,1302,eríamos,distractor,clieríamos,
141,condition1,er,seper,f,1417,1303,erías,distractor,seperías,
141,condition1,ar,rimar,j,1735,1304,arías,target,rimarías,
141,condition1,ir,tuplir,f,1281,1305,iré,distractor,tupliré,
141,condition1,ar,pavar,f,3329,1306,arían,distractor,pavarían,
141,condition1,er,ceder,j,1642,1307,erías,target,cederías,
141,condition1,er,seper,f,1484,1308,eré,distractor,seperé,
141,condition1,er,clier,f,1552,1309,ería,distractor,cliería,
141,condition1,ir,cichir,f,1563,1310,íamos,distractor,cichíamos,
141,condition1,ar,besar,j,1226,1311,aba,target,besaba,
141,condition1,ir,fundir,j,1192,1312,íamos,target,fundíamos,
141,condition1,ar,maftar,f,1260,1313,aríamos,distractor,maftaríamos,
141,condition1,ir,imir,f,1215,1314,iré,distractor,imiré,
141,condition1,ar,durar,j,1486,1315,aban,target,duraban,
141,condition1,ar,cortar,j,1281,1316,aba,target,cortaba,
141,condition1,ar,bimar,f,1204,1317,aré,distractor,bimaré,
141,condition1,ar,nadar,j,1450,1318,arías,target,nadarías,
141,condition1,ar,vidar,f,1508,1319,arían,distractor,vidarían,
141,condition1,ar,hilar,j,1641,1320,aban,target,hilaban,
141,condition1,ar,luchar,j,1215,1321,abas,target,luchabas,
141,condition1,er,tejer,j,1258,1322,íamos,target,tejíamos,
141,condition1,ar,chanrar,f,1214,1323,ábamos,distractor,chanrábamos,
141,condition1,er,leer,j,1215,1324,erá,target,leerá,
141,condition1,ar,durar,j,1170,1325,ará,target,durará,
141,condition1,er,creer,j,1191,1326,ías,target,creías,
141,condition1,ar,limar,j,2126,1327,aré,target,limaré,
141,condition1,ar,filtrar,j,1182,1328,ábamos,target,filtrábamos,
141,condition1,ar,rondar,j,1416,1329,aría,target,rondaría,
141,condition1,er,correr,j,1082,1330,ía,target,corría,
141,condition1,ar,lorgar,f,1369,1331,aría,distractor,lorgaría,
141,condition1,er,ceter,f,2407,1332,erías,distractor,ceterías,
141,condition1,ar,sindar,f,1934,1333,abas,distractor,sindabas,
141,condition1,ir,gamir,f,2002,1334,ían,distractor,gamían,
141,condition1,er,cefler,f,1788,1335,ías,distractor,ceflías,
141,condition1,er,frinder,f,1823,1336,ía,distractor,frindía,
141,condition1,ar,zusar,f,1428,1337,aría,distractor,zusaría,
141,condition1,ar,gunar,f,2251,1338,aré,distractor,gunaré,
141,condition1,er,comer,j,1236,1339,eremos,target,comeremos,
141,condition1,ar,bigar,f,1349,1340,arás,distractor,bigarás,
141,condition1,er,ceter,f,1394,1341,ías,distractor,cetías,
141,condition1,ar,rondar,j,3263,1342,arás,target,rondarás,
141,condition1,ar,vultar,f,1373,1343,ábamos,distractor,vultábamos,
141,condition1,ir,fundir,j,1372,1344,irá,target,fundirá,
141,condition1,ir,partir,j,1216,1345,iré,target,partiré,
141,condition1,er,lacher,f,1224,1346,eríamos,distractor,lacheríamos,
141,condition1,ar,fisar,f,1341,1347,ábamos,distractor,fisábamos,
141,condition1,ir,batir,j,1224,1348,iríamos,target,batiríamos,
141,condition1,er,vender,j,1170,1349,eremos,target,venderemos,
141,condition1,ar,retar,j,1159,1350,abas,target,retabas,
141,condition1,ar,fisar,f,1372,1351,abas,distractor,fisabas,
141,condition1,ar,lorgar,f,1417,1352,arían,distractor,lorgarían,
141,condition1,er,tañer,f,1598,1353,erá,target,tañerá,
141,condition1,er,moncer,f,1262,1354,ían,distractor,moncían,
141,condition1,ar,focar,f,1393,1355,abas,distractor,focabas,
141,condition1,ar,gunar,f,2001,1356,aban,distractor,gunaban,
141,condition1,er,lamer,j,1542,1357,ía,target,lamía,
141,condition1,ir,cumplir,j,1451,1358,iremos,target,cumpliremos,
141,condition1,er,lamer,j,1348,1359,eríamos,target,lameríamos,
141,condition1,ar,runar,f,1554,1360,aríamos,distractor,runaríamos,
141,condition1,er,ceter,f,1236,1361,erá,distractor,ceterá,
141,condition1,er,riter,f,1303,1362,íamos,distractor,ritíamos,
141,condition1,ar,cetar,f,1334,1363,aremos,distractor,cetaremos,
141,condition1,ar,dachar,f,1320,1364,ará,distractor,dachará,
141,condition1,er,prender,j,1983,1365,erían,target,prenderían,
141,condition1,ar,sauar,f,1236,1366,aría,distractor,sauaría,
141,condition1,ar,rotar,j,1443,1367,aba,target,rotaba,
141,condition1,ir,gruñir,j,1302,1368,ía,target,gruñía,
141,condition1,er,toser,j,1394,1369,erías,target,toserías,
141,condition1,ir,mardir,f,1372,1370,iría,distractor,mardiría,
141,condition1,er,seser,f,2092,1371,ías,distractor,sesías,
141,condition1,ar,rimar,j,1622,1372,ará,target,rimará,
141,condition1,ar,rotar,j,2202,1373,ará,target,rotará,
141,condition1,ar,lailar,f,1462,1374,aríamos,distractor,lailaríamos,
141,condition1,ar,lailar,j,1755,1375,abas,distractor,lailabas,
141,condition1,ar,cenar,j,1146,1376,aría,target,cenaría,
141,condition1,ar,chanrar,f,1318,1377,arás,distractor,chanrarás,
141,condition1,ar,luchar,j,1812,1378,aremos,target,lucharemos,
141,condition1,ir,cubrir,j,1192,1379,irán,target,cubrirán,
141,condition1,ar,lailar,f,1194,1380,ará,distractor,lailará,
141,condition1,ir,cubrir,j,1258,1381,irías,target,cubrirías,
141,condition1,ar,bimar,f,1147,1382,abas,distractor,bimabas,
141,condition1,er,frinder,f,1598,1383,eré,distractor,frinderé,
141,condition1,ar,bailar,j,1259,1384,arían,target,bailarían,
141,condition1,ar,pactar,j,1283,1385,aba,target,pactaba,
141,condition1,ar,sauar,f,1327,1386,aban,distractor,sauaban,
141,condition1,ar,zusar,f,1103,1387,arás,distractor,zusarás,
141,condition1,ir,cichir,f,1866,1388,irán,distractor,cichirán,
141,condition1,ar,narrar,j,1439,1389,ábamos,target,narrábamos,
141,condition1,ir,fundir,j,1374,1390,iríamos,target,fundiríamos,
141,condition1,ar,charlar,j,1956,1391,aríamos,target,charlaríamos,
141,condition1,ar,gachar,f,1687,1392,aban,distractor,gachaban,
141,condition1,ar,lorgar,f,1305,1393,abas,distractor,lorgabas,
141,condition1,ir,gruñir,j,1441,1394,iríamos,target,gruñiríamos,
141,condition1,ar,cortar,j,2068,1395,aremos,target,cortaremos,
141,condition1,ar,cortar,j,1417,1396,arían,target,cortarían,
141,condition1,ar,bigar,f,1417,1397,aba,distractor,bigaba,
141,condition1,er,lacher,f,1260,1398,eremos,distractor,lacheremos,
141,condition1,ar,runar,f,1642,1399,aba,distractor,runaba,
141,condition1,ar,casar,j,1710,1400,arás,target,casarás,
141,condition1,ir,bruvir,f,2857,1401,irían,distractor,bruvirían,
141,condition1,ar,sumar,j,2217,1402,aban,target,sumaban,
141,condition1,ar,hilar,j,1271,1403,aríamos,target,hilaríamos,
141,condition1,ar,vidar,f,1889,1404,ábamos,distractor,vidábamos,
141,condition1,ar,cenar,j,1159,1405,arás,target,cenarás,
141,condition1,er,temer,j,1250,1406,erían,target,temerían,
141,condition1,er,toser,j,1304,1407,erán,target,toserán,
141,condition1,ar,hilar,j,1227,1408,arás,target,hilarás,
141,condition1,ar,rayar,j,2148,1409,ábamos,target,rayábamos,
141,condition1,ar,burrar,f,2564,1410,aba,distractor,burraba,
141,condition1,er,moncer,f,1328,1411,eríamos,distractor,monceríamos,
141,condition1,ar,lorgar,f,1421,1412,aremos,distractor,lorgaremos,
141,condition1,er,toser,j,1528,1413,eremos,target,toseremos,
141,condition1,er,moncer,f,1258,1414,erías,distractor,moncerías,
141,condition1,ar,cenar,j,1272,1415,aba,target,cenaba,
141,condition1,er,honder,f,1214,1416,ería,distractor,hondería,
141,condition1,ar,ciser,f,1406,1417,abas,distractor,cisabas,
144,condition1,ar,gunar,f,2624,8,aba,distractor,gunaba,
144,condition1,ar,bigar,f,1586,9,arás,distractor,bigarás,
144,condition1,er,arder,j,1397,10,erás,target,arderás,
144,condition1,ar,sindar,f,1870,11,aríamos,distractor,sindaríamos,
144,condition1,ar,jurar,j,1354,12,aría,target,juraría,
144,condition1,er,cefler,f,1526,13,ías,distractor,ceflías,
144,condition1,ar,hallar,j,1313,14,aban,target,hallaban,
144,condition1,er,arder,j,1628,15,eríamos,target,arderíamos,
144,condition1,er,tañer,f,1794,16,erás,target,tañerás,
144,condition1,er,tejer,j,1327,17,erán,target,tejerán,
144,condition1,ir,batir,j,1390,18,irán,target,batirán,
144,condition1,ar,focar,f,1695,19,arían,distractor,focarían,
144,condition1,ir,cubrir,j,1397,20,iría,target,cubriría,
144,condition1,ar,quemar,j,1398,21,aban,target,quemaban,
144,condition1,er,tañer,f,1414,22,ería,target,tañería,
144,condition1,ar,plantar,j,1350,23,arías,target,plantarías,
144,condition1,er,seper,j,2791,24,ías,distractor,sepías,
144,condition1,er,frinder,f,1659,25,eríamos,distractor,frinderíamos,
144,condition1,er,hier,f,2412,26,eremos,distractor,hieremos,
144,condition1,ar,nadar,j,1306,27,arían,target,nadarían,
144,condition1,ir,cuarrir,f,1617,28,iremos,distractor,cuarriremos,
144,condition1,ar,cortar,j,1357,29,aremos,target,cortaremos,
144,condition1,ar,charlar,j,1402,30,abas,target,charlabas,
144,condition1,er,tejer,j,1237,31,ía,target,tejía,
144,condition1,er,ceder,j,1319,32,eremos,target,cederemos,
144,condition1,ir,tujir,f,1809,33,irá,distractor,tujirá,
144,condition1,er,cefler,f,1541,34,erías,distractor,ceflerías,
144,condition1,ar,obrar,j,1326,35,arían,target,obrarían,
144,condition1,ar,runar,f,3172,36,arías,distractor,runarías,
144,condition1,ir,fundir,j,1470,37,irás,target,fundirás,
144,condition1,ar,gachar,f,1565,38,abas,distractor,gachabas,
144,condition1,ar,formar,j,1321,39,aría,target,formaría,
144,condition1,er,hier,f,1540,40,erás,distractor,hierás,
144,condition1,ar,obrar,j,1979,41,aban,target,obraban,
144,condition1,ar,sumar,j,1385,42,arás,target,sumarás,
144,condition1,ar,sauar,f,1405,43,abas,distractor,sauabas,
144,condition1,ar,casar,j,1366,44,ará,target,casará,
144,condition1,ar,sindar,f,1625,45,arían,distractor,sindarían,
144,condition1,ir,mardir,f,1604,46,iríamos,distractor,mardiríamos,
144,condition1,ar,filtrar,j,1858,47,aré,target,filtraré,
144,condition1,ar,rondar,j,1909,48,aba,target,rondaba,
144,condition1,ir,batir,j,1800,49,iríamos,target,batiríamos,
144,condition1,ir,bruvir,f,1414,50,irás,distractor,bruvirás,
144,condition1,ir,mardir,f,2233,51,irás,distractor,mardirás,
144,condition1,ir,bruvir,f,1411,52,irías,distractor,bruvirías,
144,condition1,er,seper,f,1974,53,eríamos,distractor,seperíamos,
144,condition1,ar,rayar,j,1419,54,aríamos,target,rayaríamos,
144,condition1,ar,hallar,j,1575,55,ábamos,target,hallábamos,
144,condition1,ir,imir,f,1401,56,íamos,distractor,imíamos,
144,condition1,er,arder,j,1256,57,eré,target,arderé,
144,condition1,ar,narrar,j,1482,58,aremos,target,narraremos,
144,condition1,ar,jurar,j,1230,59,aré,target,juraré,
144,condition1,ir,sufrir,j,1944,60,irías,target,sufrirías,
144,condition1,ar,rayar,j,1376,61,aban,target,rayaban,
144,condition1,er,honder,f,1583,62,ían,distractor,hondían,
144,condition1,ir,cumplir,j,1347,63,iría,target,cumpliría,
144,condition1,ir,batir,j,1399,64,iré,target,batiré,
144,condition1,ar,rondar,j,1422,65,aríamos,target,rondaríamos,
144,condition1,er,vender,j,1354,66,eré,target,venderé,
144,condition1,ar,sindar,f,1552,67,aré,distractor,sindaré,
144,condition1,ar,casar,j,1323,68,aba,target,casaba,
144,condition1,ar,samar,f,1653,69,ábamos,distractor,samábamos,
144,condition1,ir,batir,j,1606,70,ían,target,batían,
144,condition1,ar,durar,j,1335,71,arían,target,durarían,
144,condition1,ar,durar,j,1289,72,ará,target,durará,
144,condition1,er,raber,f,1269,73,erías,distractor,raberías,
144,condition1,ir,cuarrir,f,1447,74,irás,distractor,cuarrirás,
144,condition1,ar,quijar,f,1391,75,ábamos,distractor,quijábamos,
144,condition1,ar,lorgar,j,1470,76,arás,distractor,lorgarás,
144,condition1,er,coser,j,1628,77,erán,target,coserán,
144,condition1,er,tañer,f,1395,78,eríamos,target,tañeríamos,
144,condition1,ar,fisar,f,1364,79,ará,distractor,fisará,
144,condition1,er,honder,f,1402,80,ía,distractor,hondía,
144,condition1,ar,samar,f,1287,81,abas,distractor,samabas,
144,condition1,ar,rondar,j,1428,82,aban,target,rondaban,
144,condition1,ar,hallar,j,1215,83,aré,target,hallaré,
144,condition1,ar,hallar,j,1290,84,arás,target,hallarás,
144,condition1,ir,luntir,f,1962,85,irás,distractor,luntirás,
144,condition1,ir,unir,j,1558,86,iríamos,target,uniríamos,
144,condition1,ir,tujir,f,1501,87,irías,distractor,tujirías,
144,condition1,ar,rotar,j,1858,88,aban,target,rotaban,
144,condition1,ar,limar,j,1574,89,abas,target,limabas,
144,condition1,er,moncer,f,1391,90,eremos,distractor,monceremos,
144,condition1,er,vender,j,1317,91,erías,target,venderías,
144,condition1,ir,gamir,f,1465,92,iría,distractor,gamiría,
144,condition1,ir,tuplir,f,1830,93,íamos,distractor,tuplíamos,
144,condition1,er,coser,j,1357,94,ías,target,cosías,
144,condition1,ar,luchar,j,1724,95,ábamos,target,luchábamos,
144,condition1,ar,faltar,j,1314,96,arían,target,faltarían,
144,condition1,er,seper,f,1499,97,erían,distractor,seperían,
144,condition1,er,barrer,j,1374,98,ería,target,barrería,
144,condition1,er,ciper,f,1576,99,erán,distractor,ciperán,
144,condition1,ar,lailar,f,1466,100,aré,distractor,lailaré,
144,condition1,ir,cichir,f,1606,101,ían,distractor,cichían,
144,condition1,ar,tasar,f,1618,102,arás,target,tasarás,
144,condition1,ar,durar,j,1366,103,aremos,target,duraremos,
144,condition1,ar,fisar,f,1392,104,arás,distractor,fisarás,
144,condition1,er,ceder,j,1611,105,ían,target,cedían,
144,condition1,ar,samar,f,1326,106,aba,distractor,samaba,
144,condition1,ar,gachar,f,1655,107,arías,distractor,gacharías,
144,condition1,er,somer,f,1316,108,eré,distractor,someré,
144,condition1,er,barrer,j,1370,109,ían,target,barrían,
144,condition1,ar,lorgar,j,1407,110,ábamos,distractor,lorgábamos,
144,condition1,ar,hallar,j,1543,111,aba,target,hallaba,
144,condition1,ar,jurar,j,1219,112,aremos,target,juraremos,
144,condition1,ir,fundir,j,1382,113,iríamos,target,fundiríamos,
144,condition1,er,anrer,f,3066,114,eríamos,distractor,anreríamos,
144,condition1,er,seser,f,1616,115,eremos,distractor,seseremos,
144,condition1,er,temer,j,1294,116,íamos,target,temíamos,
144,condition1,er,hier,f,1485,117,íamos,distractor,hiíamos,
144,condition1,ar,rotar,j,1468,118,aremos,target,rotaremos,
144,condition1,ar,bigar,f,1400,119,arán,distractor,bigarán,
144,condition1,ar,sindar,f,1404,120,aban,distractor,sindaban,
144,condition1,ar,besar,j,1511,121,arías,target,besarías,
144,condition1,er,arder,j,1447,122,erían,target,arderían,
144,condition1,er,meter,j,1912,123,eríamos,target,meteríamos,
144,condition1,er,correr,j,1127,124,erías,target,correrías,
144,condition1,ar,hallar,j,1263,125,aría,target,hallaría,
144,condition1,ar,filtrar,j,1255,126,aría,target,filtraría,
144,condition1,ar,cortar,j,1280,127,arías,target,cortarías,
144,condition1,ar,focar,j,1022,128,aría,distractor,focaría,
144,condition1,ar,durar,j,1236,129,arán,target,durarán,
144,condition1,ar,rondar,j,1280,130,aré,target,rondaré,
144,condition1,ar,charlar,j,1226,131,aban,target,charlaban,
144,condition1,ar,chanrar,f,1494,132,arás,distractor,chanrarás,
144,condition1,er,toser,j,1262,133,ías,target,tosías,
144,condition1,er,toser,j,1450,134,erán,target,toserán,
144,condition1,er,honder,f,1620,135,erían,distractor,honderían,
144,condition1,ar,plantar,j,1577,136,aríamos,target,plantaríamos,
144,condition1,ir,gruñir,j,1441,137,irá,target,gruñirá,
144,condition1,er,toser,j,1234,138,erían,target,toserían,
144,condition1,ir,imir,f,1741,139,irías,distractor,imirías,
144,condition1,ir,tuplir,f,2229,140,iríamos,distractor,tupliríamos,
144,condition1,er,tañer,f,1328,141,erá,target,tañerá,
144,condition1,ar,galar,f,1342,142,ábamos,distractor,galábamos,
144,condition1,er,frinder,f,1618,143,erías,distractor,frinderías,
144,condition1,er,temer,j,1283,144,ían,target,temían,
144,condition1,ir,fundir,j,1422,145,irá,target,fundirá,
144,condition1,ar,gunar,f,1390,146,abas,distractor,gunabas,
144,condition1,ir,sufrir,j,1289,147,irán,target,sufrirán,
144,condition1,er,seper,f,1795,148,ería,distractor,sepería,
144,condition1,er,anrer,f,1394,149,erá,distractor,anrerá,
144,condition1,ar,zusar,f,1229,150,arías,distractor,zusarías,
144,condition1,ar,burrar,f,2331,151,arían,distractor,burrarían,
144,condition1,ar,maftar,f,1264,152,ará,distractor,maftará,
144,condition1,ar,samar,f,1343,153,arían,distractor,samarían,
144,condition1,ar,rayar,j,1351,154,arás,target,rayarás,
144,condition1,ar,vultar,f,1530,155,ábamos,distractor,vultábamos,
144,condition1,ir,unir,j,1340,156,ía,target,unía,
144,condition1,ir,cuarrir,f,1425,157,irían,distractor,cuarrirían,
144,condition1,ir,gruñir,j,1491,158,íamos,target,gruñíamos,
144,condition1,er,barrer,j,1418,159,eríamos,target,barreríamos,
144,condition1,er,cefler,f,1333,160,erá,distractor,ceflerá,
144,condition1,er,anrer,f,1350,161,ería,distractor,anrería,
144,condition1,er,cefler,f,1428,162,erás,distractor,ceflerás,
144,condition1,ar,filtrar,j,1589,163,arías,target,filtrarías,
144,condition1,er,temer,j,1335,164,erían,target,temerían,
144,condition1,ar,samar,j,1248,165,aríamos,distractor,samaríamos,
144,condition1,ar,jurar,j,1261,166,abas,target,jurabas,
144,condition1,er,hier,j,1456,167,erían,distractor,hierían,
144,condition1,er,porer,f,1449,168,eré,distractor,poreré,
144,condition1,ar,charlar,j,1654,169,ará,target,charlará,
144,condition1,er,anrer,f,1312,170,ía,distractor,anría,
144,condition1,er,moncer,f,1392,171,eríamos,distractor,monceríamos,
144,condition1,er,tejer,j,1526,172,íamos,target,tejíamos,
144,condition1,ar,formar,j,1855,173,arán,target,formarán,
144,condition1,er,frinder,f,1296,174,eré,distractor,frinderé,
144,condition1,er,lacher,f,1323,175,erían,distractor,lacherían,
144,condition1,ar,lorgar,j,1353,176,arías,distractor,lorgarías,
144,condition1,ar,sindar,f,1531,177,abas,distractor,sindabas,
144,condition1,er,cefler,f,2380,178,íamos,distractor,ceflíamos,
144,condition1,ar,chanrar,f,1465,179,aría,distractor,chanraría,
144,condition1,ir,gruñir,j,1438,180,irías,target,gruñirías,
144,condition1,ar,cenar,j,1451,181,aba,target,cenaba,
144,condition1,ar,zusar,f,1272,182,aba,distractor,zusaba,
144,condition1,ar,bigar,f,1319,183,aban,distractor,bigaban,
144,condition1,ar,mertar,f,1316,184,ará,distractor,mertará,
144,condition1,er,faner,f,1210,185,eremos,distractor,faneremos,
144,condition1,ar,besar,j,1270,186,aba,target,besaba,
144,condition1,ar,ciser,f,1312,187,aré,distractor,cisaré,
144,condition1,er,ceter,f,1189,188,erás,distractor,ceterás,
144,condition1,ir,cuarrir,f,1213,189,iré,distractor,cuarriré,
144,condition1,ar,limar,j,1704,190,ábamos,target,limábamos,
144,condition1,ar,formar,j,2188,191,aríamos,target,formaríamos,
144,condition1,ar,quijar,f,1409,192,aríamos,distractor,quijaríamos,
144,condition1,ar,casar,j,2462,193,aríamos,target,casaríamos,
144,condition1,ar,runar,f,1314,194,arían,distractor,runarían,
144,condition1,ar,dachar,f,1341,195,ábamos,distractor,dachábamos,
144,condition1,ar,maftar,f,1237,196,arás,distractor,maftarás,
144,condition1,ar,runar,f,1384,197,ará,distractor,runará,
144,condition1,er,morder,j,1443,198,eríamos,target,morderíamos,
144,condition1,ar,maftar,f,1316,199,aremos,distractor,maftaremos,
144,condition1,er,prender,j,1308,200,ería,target,prendería,
144,condition1,ar,mertar,f,3297,202,aré,distractor,mertaré,
144,condition1,ar,gachar,f,1344,203,ábamos,distractor,gachábamos,
144,condition1,ir,tuplir,f,1213,204,iré,distractor,tupliré,
144,condition1,ir,cuarrir,f,1231,205,ían,distractor,cuarrían,
144,condition1,er,lamer,j,1349,206,ería,target,lamería,
144,condition1,er,prender,j,1621,207,íamos,target,prendíamos,
144,condition1,er,creer,j,1307,208,ía,target,creía,
144,condition1,ir,cuarrir,f,1258,209,irán,distractor,cuarrirán,
144,condition1,ir,unir,j,1265,210,irá,target,unirá,
144,condition1,er,riter,f,1310,211,ía,distractor,ritía,
144,condition1,ar,hallar,j,1443,212,aríamos,target,hallaríamos,
144,condition1,ar,rondar,j,1426,213,arías,target,rondarías,
144,condition1,ar,filtrar,j,1299,214,aban,target,filtraban,
144,condition1,ar,limar,j,1389,215,arías,target,limarías,
144,condition1,ir,luntir,f,1544,216,iríamos,distractor,luntiríamos,
144,condition1,ir,imir,f,1764,217,irá,distractor,imirá,
144,condition1,er,frinder,f,1573,218,ería,distractor,frindería,
144,condition1,ir,imir,f,1527,219,iríamos,distractor,imiríamos,
144,condition1,er,ceter,f,1381,220,ían,distractor,cetían,
144,condition1,ar,vultar,f,1364,221,arían,distractor,vultarían,
144,condition1,ir,subir,j,1427,222,iría,target,subiría,
144,condition1,er,correr,j,1236,223,ería,target,correría,
144,condition1,er,riter,f,2021,224,eré,distractor,riteré,
144,condition1,ar,bimar,f,1435,225,aríamos,distractor,bimaríamos,
144,condition1,ar,gunar,f,1211,226,aban,distractor,gunaban,
144,condition1,ar,pactar,j,1689,227,ábamos,target,pactábamos,
144,condition1,ar,vultar,f,1311,228,abas,distractor,vultabas,
144,condition1,ar,narrar,j,1271,229,ábamos,target,narrábamos,
144,condition1,ar,cenar,j,1263,230,aremos,target,cenaremos,
144,condition1,ar,obrar,j,1123,231,arás,target,obrarás,
144,condition1,er,creer,j,1188,232,ías,target,creías,
144,condition1,ir,partir,j,1436,233,irían,target,partirían,
144,condition1,ar,formar,j,1199,234,aban,target,formaban,
144,condition1,ir,cubrir,j,1394,235,iremos,target,cubriremos,
144,condition1,ar,jurar,j,1264,236,aba,target,juraba,
144,condition1,ar,limar,j,1832,237,aríamos,target,limaríamos,
144,condition1,ar,charlar,j,1948,238,arás,target,charlarás,
144,condition1,ar,casar,j,1206,239,aban,target,casaban,
144,condition1,er,cefler,f,1567,240,eré,distractor,cefleré,
144,condition1,ir,sufrir,j,1497,241,iríamos,target,sufriríamos,
144,condition1,ar,runar,f,1447,242,arás,distractor,runarás,
144,condition1,ar,eplar,f,1352,243,ábamos,distractor,eplábamos,
144,condition1,ar,casar,j,1369,244,arán,target,casarán,
144,condition1,ar,luchar,j,1352,245,arías,target,lucharías,
144,condition1,ar,quijar,f,1402,246,arían,distractor,quijarían,
