workerid,proliferate.condition,IC,lemma,response,rt,slide_number_in_experiment,suffix,trial_type,word,error
52,condition1,ir,unir,j,1541,8,ía,target,unía,
52,condition1,ar,cortar,j,1016,9,ábamos,target,cortábamos,
52,condition1,ar,hallar,j,855,10,ará,target,hallará,
52,condition1,ar,quijar,f,1616,11,aba,distractor,quijaba,
52,condition1,er,raber,j,2000,12,íamos,distractor,rabíamos,
52,condition1,ir,bruvir,f,1815,13,iría,distractor,bruviría,
52,condition1,ir,cuarrir,f,2153,14,irás,distractor,cuarrirás,
52,condition1,ar,vidar,f,2013,15,arás,distractor,vidarás,
52,condition1,er,tejer,j,1113,16,ería,target,tejería,
52,condition1,ar,fisar,j,2384,17,arías,distractor,fisarías,
52,condition1,ar,runar,f,2615,18,aría,distractor,runaría,
52,condition1,ir,sufrir,j,2304,19,iremos,target,sufriremos,
52,condition1,ar,sumar,j,1287,20,aríamos,target,sumaríamos,
52,condition1,ar,rondar,j,1072,21,aba,target,rondaba,
52,condition1,er,barrer,j,1761,22,erá,target,barrerá,
52,condition1,ar,hallar,j,895,23,aríamos,target,hallaríamos,
52,condition1,ar,rondar,j,1040,24,arían,target,rondarían,
52,condition1,ar,fautrar,f,1960,25,arían,distractor,fautrarían,
52,condition1,er,lacher,f,1336,26,erían,distractor,lacherían,
52,condition1,er,morder,j,1294,27,eremos,target,morderemos,
52,condition1,er,leer,j,1000,28,erás,target,leerás,
52,condition1,ar,maftar,f,1529,29,arían,distractor,maftarían,
52,condition1,ar,filtrar,j,2200,30,ará,target,filtrará,
52,condition1,ir,tuplir,f,1736,31,íamos,distractor,tuplíamos,
52,condition1,ir,tujir,f,1376,32,iríamos,distractor,tujiríamos,
52,condition1,er,riter,f,1888,33,ía,distractor,ritía,
52,condition1,ar,pactar,j,1167,34,aremos,target,pactaremos,
52,condition1,ar,rimar,j,1679,35,abas,target,rimabas,
52,condition1,ir,mardir,f,1977,36,ías,distractor,mardías,
52,condition1,ar,fautrar,j,2143,37,aremos,distractor,fautraremos,
52,condition1,er,prender,j,2024,38,erías,target,prenderías,
52,condition1,ar,rotar,j,1831,39,aban,target,rotaban,
52,condition1,ar,rayar,j,1095,40,ábamos,target,rayábamos,
52,condition1,er,coser,j,1024,41,erá,target,coserá,
52,condition1,er,honder,j,2616,42,eríamos,distractor,honderíamos,
52,condition1,er,toser,j,839,43,erían,target,toserían,
52,condition1,er,morder,j,632,44,erás,target,morderás,
52,condition1,ar,narrar,j,840,45,aba,target,narraba,
52,condition1,ar,lorgar,f,1647,46,aremos,distractor,lorgaremos,
52,condition1,ar,sauar,f,1305,47,aríamos,distractor,sauaríamos,
52,condition1,ar,plantar,j,1217,48,ará,target,plantará,
52,condition1,ir,partir,j,1175,49,iremos,target,partiremos,
52,condition1,er,ceder,j,840,50,ías,target,cedías,
52,condition1,er,cefler,f,1024,51,ían,distractor,ceflían,
52,condition1,ir,unir,j,800,52,irían,target,unirían,
52,condition1,er,somer,j,1288,53,eré,distractor,someré,
52,condition1,er,moncer,f,1944,54,ían,distractor,moncían,
52,condition1,ir,fundir,j,1528,55,irá,target,fundirá,
52,condition1,ar,rondar,j,1969,56,abas,target,rondabas,
52,condition1,ar,vultar,f,1167,57,ábamos,distractor,vultábamos,
52,condition1,ar,zusar,f,1223,58,aré,distractor,zusaré,
52,condition1,ar,chanrar,f,1816,59,arán,distractor,chanrarán,
52,condition1,ar,retar,j,1639,60,ará,target,retará,
52,condition1,ar,focar,f,1591,61,aríamos,distractor,focaríamos,
52,condition1,ar,cortar,j,1023,62,abas,target,cortabas,
52,condition1,er,riter,f,1407,63,erás,distractor,riterás,
52,condition1,ar,lorgar,f,1144,64,arían,distractor,lorgarían,
52,condition1,er,temer,j,1519,65,íamos,target,temíamos,
52,condition1,ar,retar,j,3736,66,arías,target,retarías,
52,condition1,ir,cuarrir,f,1865,67,íamos,distractor,cuarríamos,
52,condition1,ar,vidar,f,1496,68,arán,distractor,vidarán,
52,condition1,er,ceder,j,2632,69,eríamos,target,cederíamos,
52,condition1,ar,lailar,f,1424,70,ábamos,distractor,lailábamos,
52,condition1,er,correr,j,1455,71,ían,target,corrían,
52,condition1,ar,burrar,f,2639,72,aré,distractor,burraré,
52,condition1,er,lamer,j,1535,73,eré,target,lameré,
52,condition1,er,temer,j,2631,74,eríamos,target,temeríamos,
52,condition1,ar,burrar,f,2688,75,aba,distractor,burraba,
52,condition1,ar,fautrar,f,992,76,arías,distractor,fautrarías,
52,condition1,er,comer,j,1007,77,eremos,target,comeremos,
52,condition1,ar,pactar,j,1264,78,arías,target,pactarías,
52,condition1,er,creer,j,840,79,erán,target,creerán,
52,condition1,ar,cortar,j,1096,80,arías,target,cortarías,
52,condition1,ar,chanrar,f,1088,81,aban,distractor,chanraban,
52,condition1,ar,lailar,f,894,82,aba,distractor,lailaba,
52,condition1,ar,plantar,j,2616,83,ábamos,target,plantábamos,
52,condition1,ir,cubrir,j,3258,84,irían,target,cubrirían,
52,condition1,ar,obrar,j,1567,85,arán,target,obrarán,
52,condition1,er,frinder,f,1807,86,ían,distractor,frindían,
52,condition1,ar,samar,f,2032,87,arás,distractor,samarás,
52,condition1,er,morder,j,1311,88,ías,target,mordías,
52,condition1,ar,obrar,j,1385,89,ará,target,obrará,
52,condition1,ar,cetar,f,4633,90,aría,distractor,cetaría,
52,condition1,er,meter,j,1127,91,eríamos,target,meteríamos,
52,condition1,er,ceder,j,1696,92,erán,target,cederán,
52,condition1,er,vender,j,1136,93,ían,target,vendían,
52,condition1,er,temer,j,920,94,ían,target,temían,
52,condition1,ar,charlar,j,3640,95,arían,target,charlarían,
52,condition1,ar,limar,j,1760,96,aré,target,limaré,
52,condition1,er,cefler,f,1318,97,íamos,distractor,ceflíamos,
52,condition1,ar,cortar,j,1281,98,aríamos,target,cortaríamos,
52,condition1,ar,bimar,f,1728,99,arás,distractor,bimarás,
52,condition1,er,somer,f,2145,100,erás,distractor,somerás,
52,condition1,er,seper,f,1487,101,eré,distractor,seperé,
52,condition1,ir,cubrir,j,1623,102,iré,target,cubriré,
52,condition1,ar,bimar,f,1032,103,ará,distractor,bimará,
52,condition1,ar,sumar,j,1369,104,aría,target,sumaría,
52,condition1,ar,runar,f,1032,105,abas,distractor,runabas,
52,condition1,ar,pactar,j,3008,106,aríamos,target,pactaríamos,
52,condition1,ar,pactar,j,1743,107,aban,target,pactaban,
52,condition1,er,comer,j,816,108,ían,target,comían,
52,condition1,ir,imir,f,1160,109,ían,distractor,imían,
52,condition1,ar,cetar,f,1688,110,aríamos,distractor,cetaríamos,
52,condition1,er,somer,j,3263,111,erían,distractor,somerían,
52,condition1,ar,durar,j,952,112,aré,target,duraré,
52,condition1,er,anrer,f,1344,113,ía,distractor,anría,
52,condition1,er,tañer,f,2472,114,ían,target,tañían,
52,condition1,ir,luntir,f,952,115,iría,distractor,luntiría,
52,condition1,ar,runar,f,1463,116,arás,distractor,runarás,
52,condition1,er,lamer,j,1633,117,erían,target,lamerían,
52,condition1,ar,tasar,j,2256,118,ábamos,target,tasábamos,
52,condition1,ar,sauar,f,1112,119,arás,distractor,sauarás,
52,condition1,er,ceter,f,1120,120,erías,distractor,ceterías,
52,condition1,ar,rondar,j,840,121,aremos,target,rondaremos,
52,condition1,ar,plantar,j,5425,122,arías,target,plantarías,
52,condition1,ir,batir,j,1872,123,irá,target,batirá,
52,condition1,er,meter,j,968,124,erán,target,meterán,
52,condition1,ir,tuplir,f,1143,125,iría,distractor,tupliría,
52,condition1,er,toser,j,943,126,erás,target,toserás,
52,condition1,ar,charlar,j,2330,127,arás,target,charlarás,
52,condition1,er,ciper,f,1942,128,eríamos,distractor,ciperíamos,
52,condition1,ir,gruñir,j,1704,129,irían,target,gruñirían,
52,condition1,er,anrer,f,1592,130,eríamos,distractor,anreríamos,
52,condition1,ar,bigar,f,1800,131,arían,distractor,bigarían,
52,condition1,ar,rayar,j,887,132,aba,target,rayaba,
52,condition1,ar,tasar,f,1407,133,abas,target,tasabas,
52,condition1,ar,sumar,j,1112,134,aba,target,sumaba,
52,condition1,ar,formar,j,3632,135,arías,target,formarías,
52,condition1,ir,batir,j,5095,136,irían,target,batirían,
52,condition1,ar,galar,j,1472,137,arían,distractor,galarían,
52,condition1,ar,hilar,j,1367,138,aremos,target,hilaremos,
52,condition1,ir,subir,j,2769,139,irían,target,subirían,
52,condition1,ar,limar,j,1383,140,arías,target,limarías,
52,condition1,ar,ciser,f,1471,141,abas,distractor,cisabas,
52,condition1,er,barrer,j,1600,142,ería,target,barrería,
52,condition1,er,moncer,j,1518,143,ería,distractor,moncería,
52,condition1,er,anrer,f,1048,144,erías,distractor,anrerías,
52,condition1,ar,rotar,j,1026,145,aba,target,rotaba,
52,condition1,er,lamer,j,1150,146,ería,target,lamería,
52,condition1,er,frinder,f,1817,147,erá,distractor,frinderá,
52,condition1,ar,samar,f,1574,148,arían,distractor,samarían,
52,condition1,ar,cetar,f,2288,149,arán,distractor,cetarán,
52,condition1,er,lacher,f,2711,150,eríamos,distractor,lacheríamos,
52,condition1,ar,hilar,j,1959,151,arán,target,hilarán,
52,condition1,ar,pactar,j,1439,152,aré,target,pactaré,
52,condition1,er,vender,j,1184,153,erán,target,venderán,
52,condition1,ar,fisar,f,1727,154,aríamos,distractor,fisaríamos,
52,condition1,ar,charlar,j,2752,155,ará,target,charlará,
52,condition1,ar,clartar,f,1408,156,aba,distractor,clartaba,
52,condition1,ar,sauar,f,959,157,ará,distractor,sauará,
52,condition1,ir,sufrir,j,1095,158,irá,target,sufrirá,
52,condition1,ar,sauar,f,1313,159,aré,distractor,sauaré,
52,condition1,ar,filtrar,j,1049,160,aba,target,filtraba,
52,condition1,ar,tasar,j,2149,161,aban,target,tasaban,
52,condition1,ir,mardir,f,1434,162,íamos,distractor,mardíamos,
52,condition1,er,lacher,f,2958,163,erás,distractor,lacherás,
52,condition1,er,lacher,f,863,164,eré,distractor,lacheré,
52,condition1,ar,fisar,f,814,165,aban,distractor,fisaban,
52,condition1,ir,batir,j,1344,166,iríamos,target,batiríamos,
52,condition1,ar,sumar,j,1042,167,aremos,target,sumaremos,
52,condition1,er,tejer,j,766,168,eré,target,tejeré,
52,condition1,er,faner,f,1040,169,erá,distractor,fanerá,
52,condition1,ir,imir,f,1625,170,irías,distractor,imirías,
52,condition1,er,raber,f,799,171,erías,distractor,raberías,
52,condition1,er,porer,f,2095,172,ían,distractor,porían,
52,condition1,er,ciper,f,790,173,ía,distractor,cipía,
52,condition1,ar,pavar,f,1249,174,arías,distractor,pavarías,
52,condition1,er,anrer,f,735,175,ería,distractor,anrería,
52,condition1,ar,filtrar,j,2329,176,ábamos,target,filtrábamos,
52,condition1,er,meter,j,823,177,eré,target,meteré,
52,condition1,ar,hilar,j,1240,178,aba,target,hilaba,
52,condition1,er,anrer,f,824,179,erás,distractor,anrerás,
52,condition1,ar,gachar,f,2752,180,arán,distractor,gacharán,
52,condition1,ir,luntir,f,767,181,iré,distractor,luntiré,
52,condition1,er,seper,j,992,182,ía,distractor,sepía,
52,condition1,ar,sauar,f,1040,183,aremos,distractor,sauaremos,
52,condition1,ar,rondar,j,1336,184,arás,target,rondarás,
52,condition1,ar,lorgar,j,1088,185,ará,distractor,lorgará,
52,condition1,ar,faltar,j,806,186,aría,target,faltaría,
52,condition1,ar,gunar,f,1009,187,arán,distractor,gunarán,
52,condition1,ir,unir,j,1384,188,iremos,target,uniremos,
52,condition1,ar,cetar,f,1351,189,arás,distractor,cetarás,
52,condition1,ar,chanrar,j,5106,190,aríamos,distractor,chanraríamos,
52,condition1,ar,tasar,j,1944,191,arán,target,tasarán,
52,condition1,ar,chanrar,f,2374,192,ábamos,distractor,chanrábamos,
52,condition1,ar,narrar,j,1113,193,ábamos,target,narrábamos,
52,condition1,ir,tujir,f,1176,194,ías,distractor,tujías,
52,condition1,ar,obrar,f,2280,195,aríamos,target,obraríamos,
52,condition1,ar,narrar,f,1463,196,aríamos,target,narraríamos,
52,condition1,er,somer,f,2160,197,eríamos,distractor,someríamos,
52,condition1,ar,clartar,f,1367,198,aré,distractor,clartaré,
52,condition1,er,morder,j,1193,199,erías,target,morderías,
52,condition1,er,ceder,j,1328,200,ían,target,cedían,
52,condition1,ar,vidar,f,3049,202,ará,distractor,vidará,
52,condition1,er,seser,f,1031,203,eremos,distractor,seseremos,
52,condition1,er,tejer,j,912,204,íamos,target,tejíamos,
52,condition1,er,toser,j,2073,205,ía,target,tosía,
52,condition1,ar,faltar,j,702,206,arías,target,faltarías,
52,condition1,ar,fisar,f,818,207,aba,distractor,fisaba,
52,condition1,ir,subir,j,1256,208,iríamos,target,subiríamos,
52,condition1,er,meter,j,1095,209,eremos,target,meteremos,
52,condition1,er,prender,j,705,210,eremos,target,prenderemos,
52,condition1,er,hier,f,2192,211,erás,distractor,hierás,
52,condition1,ar,maftar,f,887,212,arías,distractor,maftarías,
52,condition1,ar,gunar,f,679,213,aría,distractor,gunaría,
52,condition1,er,clier,f,615,214,ías,distractor,cliías,
52,condition1,ar,galar,f,673,215,abas,distractor,galabas,
52,condition1,ar,fisar,f,639,216,aré,distractor,fisaré,
52,condition1,er,frinder,f,833,217,erían,distractor,frinderían,
52,condition1,ar,nadar,j,839,218,arían,target,nadarían,
52,condition1,ar,samar,f,1064,219,arías,distractor,samarías,
52,condition1,ar,bimar,f,1184,220,arán,distractor,bimarán,
52,condition1,er,ciper,f,1000,221,íamos,distractor,cipíamos,
52,condition1,er,prender,j,808,222,erá,target,prenderá,
52,condition1,ar,lailar,f,889,223,arías,distractor,lailarías,
52,condition1,ar,hallar,j,919,224,abas,target,hallabas,
52,condition1,er,toser,j,920,225,eríamos,target,toseríamos,
52,condition1,er,arder,j,1400,226,erás,target,arderás,
52,condition1,ar,sindar,f,1607,227,abas,distractor,sindabas,
52,condition1,ar,fisar,f,2216,228,arán,distractor,fisarán,
52,condition1,er,prender,j,919,229,ían,target,prendían,
52,condition1,ar,bigar,f,1791,230,arán,distractor,bigarán,
52,condition1,er,barrer,j,1175,231,erías,target,barrerías,
52,condition1,ar,nadar,j,1679,232,ábamos,target,nadábamos,
52,condition1,ir,fundir,j,2760,233,iría,target,fundiría,
52,condition1,ar,hilar,j,1584,234,arías,target,hilarías,
52,condition1,ar,pavar,j,2825,235,arán,distractor,pavarán,
52,condition1,ar,plantar,j,1535,236,aban,target,plantaban,
52,condition1,er,ceder,j,1367,237,erá,target,cederá,
52,condition1,ar,ciser,f,1816,238,aremos,distractor,cisaremos,
52,condition1,er,toser,j,769,239,erías,target,toserías,
52,condition1,ir,partir,j,880,240,irían,target,partirían,
52,condition1,ar,vultar,f,1895,241,arás,distractor,vultarás,
52,condition1,er,hier,f,3002,242,erían,distractor,hierían,
52,condition1,er,creer,j,1183,243,eríamos,target,creeríamos,
52,condition1,ar,rimar,j,1288,244,aría,target,rimaría,
52,condition1,ar,focar,f,1695,245,arían,distractor,focarían,
52,condition1,ar,focar,f,1393,246,aremos,distractor,focaremos,
52,condition1,ar,cetar,f,919,247,ará,distractor,cetará,
52,condition1,er,seper,j,1647,248,ías,distractor,sepías,
52,condition1,ar,faltar,j,817,249,ábamos,target,faltábamos,
52,condition1,er,tañer,f,1199,250,erás,target,tañerás,
52,condition1,ar,burrar,j,3489,251,ábamos,distractor,burrábamos,
52,condition1,ar,burrar,f,1824,252,abas,distractor,burrabas,
52,condition1,er,meter,j,2696,253,erá,target,meterá,
52,condition1,ar,rondar,j,1071,254,arías,target,rondarías,
52,condition1,er,prender,j,752,255,ería,target,prendería,
52,condition1,er,coser,j,680,256,eré,target,coseré,
52,condition1,ar,hallar,j,600,257,arían,target,hallarían,
52,condition1,er,correr,j,568,258,erías,target,correrías,
52,condition1,er,tañer,f,1087,259,ía,target,tañía,
52,condition1,ir,imir,f,825,260,iré,distractor,imiré,
52,condition1,ar,bimar,f,1207,261,aría,distractor,bimaría,
52,condition1,ar,pactar,j,1512,262,abas,target,pactabas,
52,condition1,ar,vultar,f,968,263,abas,distractor,vultabas,
52,condition1,ir,imir,f,1400,264,iríamos,distractor,imiríamos,
52,condition1,ar,bailar,j,976,265,abas,target,bailabas,
52,condition1,er,tañer,f,856,266,ías,target,tañías,
52,condition1,ar,hilar,j,3856,267,aríamos,target,hilaríamos,
52,condition1,er,moncer,f,872,268,erá,distractor,moncerá,
52,condition1,er,ciper,f,1936,269,ería,distractor,cipería,
52,condition1,ar,faltar,j,1079,270,aré,target,faltaré,
52,condition1,ir,tuplir,f,3498,271,iríamos,distractor,tupliríamos,
52,condition1,ar,besar,j,735,272,arán,target,besarán,
52,condition1,ir,gruñir,j,1832,273,íamos,target,gruñíamos,
52,condition1,er,frinder,f,2144,274,eríamos,distractor,frinderíamos,
52,condition1,ar,quemar,j,793,275,abas,target,quemabas,
52,condition1,ar,nadar,j,719,276,ará,target,nadará,
52,condition1,ir,cubrir,j,824,277,irías,target,cubrirías,
52,condition1,ir,unir,j,624,278,irá,target,unirá,
52,condition1,er,meter,j,606,279,ía,target,metía,
52,condition1,ar,cenar,j,904,280,arías,target,cenarías,
52,condition1,ar,fautrar,f,1248,281,ábamos,distractor,fautrábamos,
52,condition1,er,ceder,j,1056,282,ería,target,cedería,
52,condition1,ar,zusar,f,1054,283,arían,distractor,zusarían,
52,condition1,er,clier,f,1160,284,eré,distractor,clieré,
52,condition1,ir,cumplir,j,976,285,ían,target,cumplían,
52,condition1,ir,batir,j,1008,286,irán,target,batirán,
52,condition1,ar,gunar,f,1158,287,arás,distractor,gunarás,
52,condition1,er,faner,f,1151,288,íamos,distractor,faníamos,
52,condition1,er,seper,f,1390,289,íamos,distractor,sepíamos,
52,condition1,er,anrer,f,824,290,erán,distractor,anrerán,
52,condition1,ir,subir,j,936,291,irá,target,subirá,
52,condition1,ar,fisar,f,1080,292,arían,distractor,fisarían,
52,condition1,ar,faltar,j,752,293,arían,target,faltarían,
52,condition1,ar,charlar,j,873,294,abas,target,charlabas,
52,condition1,ar,cetar,f,902,295,aba,distractor,cetaba,
52,condition1,ar,ciser,f,1257,296,ábamos,distractor,cisábamos,
52,condition1,ar,zusar,f,743,297,abas,distractor,zusabas,
52,condition1,ar,burrar,f,2032,298,arás,distractor,burrarás,
52,condition1,ar,fautrar,f,928,299,arás,distractor,fautrarás,
52,condition1,ar,rotar,j,831,300,ábamos,target,rotábamos,
52,condition1,er,raber,f,942,301,erás,distractor,raberás,
52,condition1,ar,filtrar,j,2081,302,arías,target,filtrarías,
52,condition1,ar,formar,j,934,303,aba,target,formaba,
52,condition1,ar,chanrar,f,1201,304,aba,distractor,chanraba,
52,condition1,ar,obrar,j,2000,305,aban,target,obraban,
52,condition1,ar,quijar,f,1577,306,aríamos,distractor,quijaríamos,
52,condition1,ir,tujir,f,1422,307,irían,distractor,tujirían,
52,condition1,er,ceder,j,1056,308,eremos,target,cederemos,
52,condition1,ir,unir,j,927,309,iré,target,uniré,
52,condition1,er,porer,f,1960,310,eríamos,distractor,poreríamos,
52,condition1,er,hier,f,4921,311,ía,distractor,hiía,
52,condition1,er,ceder,j,3184,312,ía,target,cedía,
52,condition1,er,raber,f,3831,313,erían,distractor,raberían,
52,condition1,ar,sauar,f,888,314,arían,distractor,sauarían,
52,condition1,er,lamer,j,775,315,eremos,target,lameremos,
52,condition1,ar,cetar,f,975,316,aré,distractor,cetaré,
52,condition1,ar,ciser,f,1385,317,arías,distractor,cisarías,
52,condition1,ar,quijar,f,959,318,arán,distractor,quijarán,
52,condition1,er,faner,f,761,319,erán,distractor,fanerán,
52,condition1,ar,burrar,j,3311,320,aríamos,distractor,burraríamos,
52,condition1,ar,ciser,f,2383,321,aríamos,distractor,cisaríamos,
52,condition1,er,tañer,f,1024,322,eremos,target,tañeremos,
52,condition1,ir,gamir,f,912,323,irá,distractor,gamirá,
52,condition1,ar,zusar,f,607,324,arías,distractor,zusarías,
52,condition1,ar,cetar,f,1545,325,abas,distractor,cetabas,
52,condition1,ar,narrar,j,927,326,ará,target,narrará,
52,condition1,er,comer,j,679,327,eré,target,comeré,
52,condition1,ar,luchar,j,696,328,arás,target,lucharás,
52,condition1,ar,gachar,f,4056,329,aría,distractor,gacharía,
52,condition1,er,cefler,f,815,330,erá,distractor,ceflerá,
52,condition1,ar,formar,j,1519,331,arás,target,formarás,
52,condition1,ar,casar,j,1328,332,aré,target,casaré,
52,condition1,er,faner,f,801,333,ía,distractor,fanía,
52,condition1,er,toser,j,880,334,íamos,target,tosíamos,
52,condition1,ar,dachar,f,1265,335,arás,distractor,dacharás,
52,condition1,ar,quijar,f,1310,336,ábamos,distractor,quijábamos,
52,condition1,ar,chanrar,f,1449,337,aré,distractor,chanraré,
52,condition1,ar,lorgar,f,992,338,aba,distractor,lorgaba,
52,condition1,er,morder,j,897,339,erían,target,morderían,
52,condition1,er,meter,j,1071,340,erás,target,meterás,
52,condition1,er,creer,j,761,341,ían,target,creían,
52,condition1,ar,durar,j,2936,342,arían,target,durarían,
52,condition1,ir,gamir,f,789,343,irían,distractor,gamirían,
52,condition1,ir,cubrir,j,1849,344,iríamos,target,cubriríamos,
52,condition1,ir,unir,j,1192,345,irán,target,unirán,
52,condition1,ir,cuarrir,f,1280,346,ías,distractor,cuarrías,
52,condition1,ar,durar,j,1289,347,arías,target,durarías,
52,condition1,er,frinder,f,759,348,erán,distractor,frinderán,
52,condition1,er,ciper,f,1464,349,eré,distractor,ciperé,
52,condition1,er,barrer,j,1048,350,eríamos,target,barreríamos,
52,condition1,er,moncer,f,1385,351,íamos,distractor,moncíamos,
52,condition1,er,leer,j,1207,352,eremos,target,leeremos,
52,condition1,ar,nadar,j,1183,353,abas,target,nadabas,
52,condition1,ar,bailar,j,1856,354,aríamos,target,bailaríamos,
52,condition1,ir,sufrir,j,913,355,irías,target,sufrirías,
52,condition1,ir,cumplir,j,1863,356,iríamos,target,cumpliríamos,
52,condition1,ir,imir,f,1184,357,irían,distractor,imirían,
52,condition1,ar,bimar,f,1170,358,aba,distractor,bimaba,
52,condition1,ar,luchar,j,887,359,ábamos,target,luchábamos,
52,condition1,ar,formar,j,1831,360,aremos,target,formaremos,
52,condition1,er,faner,f,783,361,eré,distractor,faneré,
52,condition1,er,prender,j,952,362,ías,target,prendías,
52,condition1,ar,vidar,f,1327,363,arían,distractor,vidarían,
52,condition1,ar,narrar,j,816,364,aban,target,narraban,
52,condition1,er,anrer,f,784,365,ías,distractor,anrías,
52,condition1,er,ceter,f,4664,366,íamos,distractor,cetíamos,
52,condition1,er,somer,f,1102,367,ía,distractor,somía,
52,condition1,ir,unir,j,1799,368,ías,target,unías,
52,condition1,ar,rimar,j,815,369,aré,target,rimaré,
52,condition1,ar,rayar,j,752,370,arías,target,rayarías,
52,condition1,ar,sindar,f,952,371,arán,distractor,sindarán,
52,condition1,er,lamer,j,719,372,ía,target,lamía,
52,condition1,er,arder,j,1286,373,erían,target,arderían,
52,condition1,ar,sumar,j,665,374,ará,target,sumará,
52,condition1,ar,plantar,j,615,375,arán,target,plantarán,
52,condition1,er,hier,f,1360,376,erá,distractor,hierá,
52,condition1,ir,sufrir,j,839,377,ía,target,sufría,
52,condition1,ir,mardir,f,1999,378,iré,distractor,mardiré,
52,condition1,er,temer,j,1199,379,erían,target,temerían,
52,condition1,ar,samar,f,856,380,arán,distractor,samarán,
52,condition1,er,cefler,f,2328,381,ería,distractor,ceflería,
52,condition1,ar,lorgar,f,1014,382,abas,distractor,lorgabas,
52,condition1,ar,sumar,j,817,383,abas,target,sumabas,
52,condition1,ar,charlar,j,1009,384,aremos,target,charlaremos,
52,condition1,ar,rondar,j,734,385,aría,target,rondaría,
52,condition1,ar,lorgar,f,1216,386,aban,distractor,lorgaban,
52,condition1,ar,gunar,f,920,387,aríamos,distractor,gunaríamos,
52,condition1,ar,clartar,f,919,388,aríamos,distractor,clartaríamos,
52,condition1,ar,quijar,f,1991,389,aría,distractor,quijaría,
52,condition1,ar,jurar,j,3160,390,arás,target,jurarás,
52,condition1,ir,gruñir,j,1849,391,irán,target,gruñirán,
52,condition1,er,arder,j,1174,392,erías,target,arderías,
52,condition1,er,seper,f,2232,393,ería,distractor,sepería,
52,condition1,ar,gachar,f,1007,394,arías,distractor,gacharías,
52,condition1,ir,mardir,f,887,395,irá,distractor,mardirá,
52,condition1,er,moncer,j,2848,396,erías,distractor,moncerías,
52,condition1,er,lacher,f,1751,397,ería,distractor,lachería,
52,condition1,ar,lorgar,f,1521,398,arás,distractor,lorgarás,
52,condition1,ar,formar,j,1270,399,aban,target,formaban,
52,condition1,ar,retar,j,1744,400,aría,target,retaría,
52,condition1,ar,obrar,j,3541,402,arían,target,obrarían,
52,condition1,ar,galar,f,1584,403,ará,distractor,galará,
52,condition1,er,hier,f,2473,404,ería,distractor,hiería,
52,condition1,ar,lailar,f,711,405,arían,distractor,lailarían,
52,condition1,ar,eplar,f,689,406,arías,distractor,eplarías,
52,condition1,er,porer,f,2848,407,ería,distractor,porería,
52,condition1,ir,mardir,f,1198,408,iríamos,distractor,mardiríamos,
52,condition1,ar,rondar,j,1385,409,aríamos,target,rondaríamos,
52,condition1,ar,rotar,j,736,410,abas,target,rotabas,
52,condition1,ir,tuplir,f,751,411,irán,distractor,tuplirán,
52,condition1,ar,besar,j,687,412,aremos,target,besaremos,
52,condition1,ir,bruvir,f,1288,413,iré,distractor,bruviré,
52,condition1,er,temer,j,969,414,erás,target,temerás,
52,condition1,er,clier,f,1288,415,ía,distractor,cliía,
52,condition1,ar,nadar,j,1015,416,aremos,target,nadaremos,
52,condition1,ir,cumplir,j,1018,417,iría,target,cumpliría,
52,condition1,ar,besar,j,869,418,arían,target,besarían,
52,condition1,ir,fundir,j,778,419,ía,target,fundía,
52,condition1,ar,nadar,j,615,420,arán,target,nadarán,
52,condition1,er,temer,j,767,421,ería,target,temería,
52,condition1,ar,pavar,f,1456,422,ará,distractor,pavará,
52,condition1,er,tañer,f,904,423,íamos,target,tañíamos,
52,condition1,ar,tasar,f,616,424,arías,target,tasarías,
52,condition1,ar,vidar,j,3591,425,aría,distractor,vidaría,
52,condition1,er,vender,j,1145,426,ería,target,vendería,
52,condition1,ar,cenar,j,1279,427,arían,target,cenarían,
52,condition1,ar,vultar,f,1000,428,arán,distractor,vultarán,
52,condition1,ar,dachar,f,1280,429,abas,distractor,dachabas,
52,condition1,ar,quemar,j,840,430,aban,target,quemaban,
52,condition1,er,tejer,j,1815,431,erían,target,tejerían,
52,condition1,er,leer,j,841,432,ía,target,leía,
52,condition1,ir,luntir,f,1223,433,irías,distractor,luntirías,
52,condition1,ir,luntir,f,1137,434,irá,distractor,luntirá,
52,condition1,er,porer,f,1343,435,íamos,distractor,poríamos,
52,condition1,ar,gachar,f,681,436,ará,distractor,gachará,
52,condition1,ar,gachar,f,2248,437,aríamos,distractor,gacharíamos,
52,condition1,ir,sufrir,j,1200,438,íamos,target,sufríamos,
52,condition1,er,seper,f,1328,439,erán,distractor,seperán,
52,condition1,ar,eplar,f,647,440,abas,distractor,eplabas,
52,condition1,ar,rimar,j,2401,441,arías,target,rimarías,
52,condition1,er,lamer,j,1047,442,eríamos,target,lameríamos,
52,condition1,ir,gamir,f,2295,443,iríamos,distractor,gamiríamos,
52,condition1,ir,cichir,f,3569,444,irás,distractor,cichirás,
52,condition1,ar,cortar,j,1335,445,aría,target,cortaría,
52,condition1,ar,luchar,j,967,446,arían,target,lucharían,
52,condition1,ar,eplar,f,1065,447,aríamos,distractor,eplaríamos,
52,condition1,er,arder,j,696,448,ías,target,ardías,
52,condition1,ar,faltar,j,944,449,ará,target,faltará,
52,condition1,er,leer,j,704,450,erá,target,leerá,
52,condition1,ar,luchar,j,856,451,aría,target,lucharía,
52,condition1,er,toser,j,855,452,erán,target,toserán,
52,condition1,ar,faltar,j,1568,453,aba,target,faltaba,
52,condition1,er,comer,j,928,454,íamos,target,comíamos,
52,condition1,er,correr,j,927,455,erían,target,correrían,
52,condition1,er,honder,j,2704,456,ería,distractor,hondería,
52,condition1,ir,sufrir,j,798,457,irás,target,sufrirás,
52,condition1,ar,ciser,f,1073,458,aba,distractor,cisaba,
52,condition1,ir,gamir,f,1313,459,iremos,distractor,gamiremos,
52,condition1,ar,bigar,f,1735,460,ábamos,distractor,bigábamos,
52,condition1,er,raber,j,1344,461,ías,distractor,rabías,
52,condition1,er,morder,j,721,462,ían,target,mordían,
52,condition1,er,creer,j,695,463,erías,target,creerías,
52,condition1,ar,durar,j,768,464,ará,target,durará,
52,condition1,er,ceter,f,1536,465,eremos,distractor,ceteremos,
52,condition1,ar,pavar,f,680,466,aría,distractor,pavaría,
52,condition1,ir,tujir,f,1048,467,iría,distractor,tujiría,
52,condition1,er,tejer,j,1839,468,erías,target,tejerías,
52,condition1,er,riter,f,2169,469,erías,distractor,riterías,
52,condition1,er,seser,f,1200,470,ería,distractor,sesería,
52,condition1,ar,besar,j,744,471,ábamos,target,besábamos,
52,condition1,ar,ciser,f,3497,472,arían,distractor,cisarían,
52,condition1,er,toser,j,1216,473,eremos,target,toseremos,
52,condition1,ar,tasar,j,1648,474,aré,target,tasaré,
52,condition1,ar,maftar,f,1319,475,ábamos,distractor,maftábamos,
52,condition1,ar,formar,j,752,476,abas,target,formabas,
52,condition1,ar,durar,j,1184,477,arás,target,durarás,
52,condition1,ar,bailar,j,655,478,ábamos,target,bailábamos,
52,condition1,ar,filtrar,j,1649,479,arán,target,filtrarán,
52,condition1,er,lamer,j,577,480,erán,target,lamerán,
52,condition1,ar,zusar,f,695,481,arás,distractor,zusarás,
52,condition1,ir,cichir,f,1376,482,iré,distractor,cichiré,
52,condition1,er,clier,f,1881,483,erás,distractor,clierás,
52,condition1,er,somer,f,1415,484,íamos,distractor,somíamos,
52,condition1,ar,pactar,j,936,485,arás,target,pactarás,
52,condition1,ar,hilar,j,1384,486,ábamos,target,hilábamos,
52,condition1,ar,besar,j,729,487,aría,target,besaría,
52,condition1,ar,pavar,f,1870,488,ábamos,distractor,pavábamos,
52,condition1,ar,rimar,j,1161,489,aremos,target,rimaremos,
52,condition1,er,hier,f,1350,490,eríamos,distractor,hieríamos,
52,condition1,er,comer,j,1330,491,erá,target,comerá,
52,condition1,ir,bruvir,f,1663,492,irá,distractor,bruvirá,
52,condition1,er,honder,f,5096,493,ía,distractor,hondía,
52,condition1,ir,subir,j,1159,494,irías,target,subirías,
52,condition1,ar,pavar,f,807,495,aba,distractor,pavaba,
52,condition1,ar,durar,j,1049,496,aríamos,target,duraríamos,
52,condition1,ar,burrar,f,1441,497,arías,distractor,burrarías,
52,condition1,er,lacher,f,2511,498,íamos,distractor,lachíamos,
52,condition1,ir,bruvir,f,799,499,irías,distractor,bruvirías,
52,condition1,ar,jurar,j,872,500,aré,target,juraré,
52,condition1,er,arder,j,1855,501,erán,target,arderán,
52,condition1,ar,limar,j,1713,502,arás,target,limarás,
52,condition1,ir,cubrir,j,664,503,ía,target,cubría,
52,condition1,ar,tasar,j,1351,504,arás,target,tasarás,
52,condition1,ar,runar,j,3602,505,arían,distractor,runarían,
52,condition1,ir,luntir,f,1431,506,ían,distractor,luntían,
52,condition1,ar,gunar,f,2056,507,aban,distractor,gunaban,
52,condition1,ar,rimar,j,896,508,aba,target,rimaba,
52,condition1,er,seser,f,1718,509,erían,distractor,seserían,
52,condition1,ar,lailar,f,818,510,abas,distractor,lailabas,
52,condition1,ir,imir,f,784,511,ías,distractor,imías,
52,condition1,ar,gunar,f,687,512,arías,distractor,gunarías,
52,condition1,ar,jurar,j,1000,513,arías,target,jurarías,
52,condition1,ir,cumplir,j,632,514,ías,target,cumplías,
52,condition1,ir,gamir,f,959,515,irán,distractor,gamirán,
52,condition1,ir,luntir,f,770,516,irás,distractor,luntirás,
52,condition1,er,temer,j,3773,517,erías,target,temerías,
52,condition1,ar,tasar,j,1360,518,arían,target,tasarían,
52,condition1,er,meter,j,736,519,ían,target,metían,
52,condition1,er,frinder,f,1440,520,íamos,distractor,frindíamos,
52,condition1,ar,cortar,j,832,521,aré,target,cortaré,
52,condition1,ar,bigar,f,969,522,aban,distractor,bigaban,
52,condition1,ar,retar,j,902,523,arás,target,retarás,
52,condition1,ar,gunar,f,825,524,aba,distractor,gunaba,
52,condition1,ar,galar,f,1456,525,arías,distractor,galarías,
52,condition1,er,tejer,j,737,526,ías,target,tejías,
52,condition1,er,coser,j,855,527,ería,target,cosería,
52,condition1,ar,cenar,j,1271,528,aríamos,target,cenaríamos,
52,condition1,er,somer,f,1481,529,eremos,distractor,someremos,
52,condition1,ar,eplar,f,872,530,aba,distractor,eplaba,
52,condition1,ar,maftar,f,824,531,aríamos,distractor,maftaríamos,
52,condition1,ir,partir,j,1695,532,irán,target,partirán,
52,condition1,er,porer,f,1041,533,eré,distractor,poreré,
52,condition1,ir,bruvir,f,792,534,irían,distractor,bruvirían,
52,condition1,ar,quijar,f,815,535,abas,distractor,quijabas,
52,condition1,ar,quemar,j,792,536,aríamos,target,quemaríamos,
52,condition1,ir,tuplir,f,993,537,ías,distractor,tuplías,
52,condition1,er,meter,j,775,538,erían,target,meterían,
52,condition1,er,seser,j,2816,539,erás,distractor,seserás,
52,condition1,ir,cumplir,j,1849,540,ía,target,cumplía,
52,condition1,ir,imir,f,1048,541,íamos,distractor,imíamos,
52,condition1,er,honder,f,1056,542,ían,distractor,hondían,
52,condition1,ar,hallar,j,784,543,arán,target,hallarán,
52,condition1,ar,besar,j,680,544,ará,target,besará,
52,condition1,ar,sindar,f,911,545,aba,distractor,sindaba,
52,condition1,ar,ciser,f,1969,546,aría,distractor,cisaría,
52,condition1,ir,cuarrir,f,1384,547,ían,distractor,cuarrían,
52,condition1,ar,formar,j,1408,548,aría,target,formaría,
52,condition1,er,coser,j,847,549,erán,target,coserán,
52,condition1,ar,vultar,f,1233,550,arían,distractor,vultarían,
52,condition1,er,riter,f,1967,551,erán,distractor,riterán,
52,condition1,er,tejer,j,1137,552,eríamos,target,tejeríamos,
52,condition1,er,coser,j,1521,553,íamos,target,cosíamos,
52,condition1,ar,hilar,j,2351,554,aban,target,hilaban,
52,condition1,ar,vidar,f,3359,555,aríamos,distractor,vidaríamos,
52,condition1,er,meter,j,2224,556,erías,target,meterías,
52,condition1,ar,filtrar,j,2207,557,aremos,target,filtraremos,
52,condition1,ar,sumar,j,847,558,aban,target,sumaban,
52,condition1,ar,gachar,f,1577,559,aba,distractor,gachaba,
52,condition1,er,honder,f,1104,560,erá,distractor,honderá,
52,condition1,ar,clartar,f,2734,561,aremos,distractor,clartaremos,
52,condition1,er,porer,f,1784,562,erá,distractor,porerá,
52,condition1,ar,pactar,j,1865,563,arán,target,pactarán,
52,condition1,er,creer,j,1257,564,erá,target,creerá,
52,condition1,ar,ciser,f,2880,565,arán,distractor,cisarán,
52,condition1,ir,subir,j,720,566,iré,target,subiré,
52,condition1,ar,burrar,f,911,567,arán,distractor,burrarán,
52,condition1,ir,gruñir,j,985,568,iré,target,gruñiré,
52,condition1,ar,luchar,j,920,569,aremos,target,lucharemos,
52,condition1,ir,partir,j,1079,570,ías,target,partías,
52,condition1,ar,clartar,f,1265,571,arán,distractor,clartarán,
52,condition1,er,toser,j,655,572,eré,target,toseré,
52,condition1,er,comer,j,689,573,ería,target,comería,
52,condition1,ir,luntir,f,711,574,ía,distractor,luntía,
52,condition1,ar,rimar,j,1258,575,ábamos,target,rimábamos,
52,condition1,ar,mertar,f,1167,576,arías,distractor,mertarías,
52,condition1,er,correr,j,791,577,íamos,target,corríamos,
52,condition1,ar,rotar,j,1632,578,aríamos,target,rotaríamos,
52,condition1,er,clier,f,1232,579,erías,distractor,clierías,
52,condition1,er,coser,j,752,580,erían,target,coserían,
52,condition1,ar,casar,j,1327,581,arías,target,casarías,
52,condition1,ar,hallar,j,745,582,aremos,target,hallaremos,
52,condition1,ar,faltar,j,1096,583,aremos,target,faltaremos,
52,condition1,er,seser,f,1063,584,íamos,distractor,sesíamos,
52,condition1,ar,galar,f,1249,585,aríamos,distractor,galaríamos,
52,condition1,ar,eplar,f,728,586,aban,distractor,eplaban,
52,condition1,ar,casar,j,1070,587,aría,target,casaría,
52,condition1,ar,bimar,f,928,588,aríamos,distractor,bimaríamos,
52,condition1,ir,bruvir,f,770,589,ían,distractor,bruvían,
52,condition1,ar,lorgar,f,1055,590,arías,distractor,lorgarías,
52,condition1,er,leer,j,872,591,íamos,target,leíamos,
52,condition1,er,somer,f,783,592,erías,distractor,somerías,
52,condition1,ar,retar,j,1464,593,aremos,target,retaremos,
52,condition1,ar,dachar,f,1769,594,aríamos,distractor,dacharíamos,
52,condition1,er,riter,f,1776,595,eremos,distractor,riteremos,
52,condition1,er,barrer,j,1008,596,eré,target,barreré,
52,condition1,ar,bigar,f,849,597,arás,distractor,bigarás,
52,condition1,er,somer,f,1536,598,ían,distractor,somían,
52,condition1,er,clier,f,3687,599,ería,distractor,cliería,
52,condition1,ir,bruvir,f,838,600,ía,distractor,bruvía,
52,condition1,ir,tujir,j,2472,602,irías,distractor,tujirías,
52,condition1,ar,nadar,j,1471,603,aría,target,nadaría,
52,condition1,ar,fautrar,f,2193,604,aba,distractor,fautraba,
52,condition1,ar,plantar,j,1687,605,aría,target,plantaría,
52,condition1,er,seser,f,1504,606,erías,distractor,seserías,
52,condition1,ar,rotar,j,943,607,arían,target,rotarían,
52,condition1,ar,gachar,f,1209,608,arás,distractor,gacharás,
52,condition1,er,seper,f,1760,609,eremos,distractor,seperemos,
52,condition1,ar,retar,f,1087,610,aríamos,target,retaríamos,
52,condition1,er,lamer,j,1433,611,ían,target,lamían,
52,condition1,ar,luchar,j,1479,612,aríamos,target,lucharíamos,
52,condition1,er,lamer,j,913,613,erías,target,lamerías,
52,condition1,ir,cuarrir,f,912,614,irían,distractor,cuarrirían,
52,condition1,er,barrer,j,2001,615,íamos,target,barríamos,
52,condition1,er,morder,j,856,616,erán,target,morderán,
52,condition1,ir,cuarrir,f,3079,617,iremos,distractor,cuarriremos,
52,condition1,er,coser,j,1224,618,erás,target,coserás,
52,condition1,ar,vidar,f,887,619,aré,distractor,vidaré,
52,condition1,ar,bigar,f,769,620,aré,distractor,bigaré,
52,condition1,er,comer,j,952,621,erías,target,comerías,
52,condition1,ir,luntir,f,1128,622,irán,distractor,luntirán,
52,condition1,er,lamer,j,832,623,erá,target,lamerá,
52,condition1,ar,plantar,j,816,624,abas,target,plantabas,
52,condition1,ar,rayar,j,728,625,ará,target,rayará,
52,condition1,ir,sufrir,j,727,626,ías,target,sufrías,
52,condition1,ar,cenar,j,752,627,aba,target,cenaba,
52,condition1,ar,chanrar,f,791,628,arías,distractor,chanrarías,
52,condition1,ar,cenar,j,761,629,ábamos,target,cenábamos,
52,condition1,ar,casar,j,808,630,arás,target,casarás,
52,condition1,ar,plantar,j,1648,631,aremos,target,plantaremos,
52,condition1,er,morder,j,744,632,eré,target,morderé,
52,condition1,er,frinder,f,1008,633,erías,distractor,frinderías,
52,condition1,ar,obrar,j,695,634,aremos,target,obraremos,
52,condition1,ar,jurar,j,873,635,abas,target,jurabas,
52,condition1,ar,hilar,j,1000,636,aré,target,hilaré,
52,condition1,er,faner,f,2542,637,eríamos,distractor,faneríamos,
52,condition1,er,hier,f,2072,638,íamos,distractor,hiíamos,
52,condition1,er,moncer,j,2585,639,erán,distractor,moncerán,
52,condition1,er,arder,j,1039,640,eremos,target,arderemos,
52,condition1,ir,cumplir,j,2481,641,irían,target,cumplirían,
52,condition1,ir,imir,f,744,642,irá,distractor,imirá,
52,condition1,ar,gunar,f,1232,643,aré,distractor,gunaré,
52,condition1,er,prender,j,1720,644,ía,target,prendía,
52,condition1,ir,batir,j,1591,645,ía,target,batía,
52,condition1,er,correr,j,1433,646,erán,target,correrán,
52,condition1,ar,jurar,j,1600,647,arían,target,jurarían,
52,condition1,ar,hallar,j,1112,648,arás,target,hallarás,
52,condition1,ar,quijar,f,1231,649,aremos,distractor,quijaremos,
52,condition1,er,faner,f,857,650,eremos,distractor,faneremos,
52,condition1,ar,narrar,j,1160,651,arás,target,narrarás,
52,condition1,ar,quemar,j,1224,652,ábamos,target,quemábamos,
52,condition1,ir,cubrir,j,735,653,irás,target,cubrirás,
52,condition1,er,seser,f,840,654,ías,distractor,sesías,
52,condition1,er,tejer,j,920,655,eremos,target,tejeremos,
52,condition1,er,moncer,f,1952,656,erían,distractor,moncerían,
52,condition1,er,tejer,j,696,657,ía,target,tejía,
52,condition1,ar,maftar,f,928,658,ará,distractor,maftará,
52,condition1,er,moncer,f,1169,659,ía,distractor,moncía,
52,condition1,ar,hallar,j,663,660,aban,target,hallaban,
52,condition1,ir,subir,j,713,661,ían,target,subían,
52,condition1,ir,cichir,f,800,662,ías,distractor,cichías,
52,condition1,er,leer,j,752,663,erías,target,leerías,
52,condition1,ar,bigar,f,967,664,aba,distractor,bigaba,
52,condition1,ar,eplar,f,991,665,aremos,distractor,eplaremos,
52,condition1,ar,bailar,j,890,666,arán,target,bailarán,
52,condition1,ir,subir,j,784,667,íamos,target,subíamos,
52,condition1,ar,bimar,f,727,668,arían,distractor,bimarían,
52,condition1,er,cefler,f,703,669,erían,distractor,ceflerían,
52,condition1,er,raber,j,722,670,ía,distractor,rabía,
52,condition1,ar,gunar,f,2792,671,arían,distractor,gunarían,
52,condition1,ir,gruñir,j,2295,672,irías,target,gruñirías,
52,condition1,er,clier,f,840,673,erá,distractor,clierá,
52,condition1,ar,galar,f,889,674,ábamos,distractor,galábamos,
52,condition1,ar,mertar,f,1343,675,arían,distractor,mertarían,
52,condition1,ar,nadar,j,1160,676,aré,target,nadaré,
52,condition1,ar,limar,j,2448,677,aría,target,limaría,
52,condition1,ir,tuplir,f,967,678,iremos,distractor,tupliremos,
52,condition1,ar,fisar,f,1090,679,arás,distractor,fisarás,
52,condition1,ar,tasar,j,1399,680,aríamos,target,tasaríamos,
52,condition1,er,hier,f,1575,681,ían,distractor,hiían,
52,condition1,er,porer,f,1721,682,eremos,distractor,poreremos,
52,condition1,ir,cuarrir,f,904,683,irá,distractor,cuarrirá,
52,condition1,ir,mardir,f,1209,684,iría,distractor,mardiría,
52,condition1,ar,formar,j,1846,685,aríamos,target,formaríamos,
52,condition1,ir,fundir,j,1137,686,irías,target,fundirías,
52,condition1,er,raber,f,1271,687,erá,distractor,raberá,
52,condition1,ar,clartar,f,1015,688,aría,distractor,clartaría,
52,condition1,er,tañer,f,1000,689,erán,target,tañerán,
52,condition1,er,clier,f,929,690,eríamos,distractor,clieríamos,
52,condition1,ar,galar,f,607,691,aban,distractor,galaban,
52,condition1,ar,casar,j,768,692,aba,target,casaba,
52,condition1,ar,quijar,f,1848,693,ará,distractor,quijará,
52,condition1,ar,rondar,f,3104,694,ará,target,rondará,
52,condition1,ar,lailar,f,2369,695,aría,distractor,lailaría,
52,condition1,er,prender,j,2087,696,erán,target,prenderán,
52,condition1,ir,cumplir,j,1414,697,irá,target,cumplirá,
52,condition1,ar,clartar,f,1337,698,ábamos,distractor,clartábamos,
52,condition1,ar,gunar,f,1000,699,ábamos,distractor,gunábamos,
52,condition1,er,frinder,f,776,700,eré,distractor,frinderé,
52,condition1,er,prender,j,840,701,eré,target,prenderé,
52,condition1,ir,subir,j,792,702,iría,target,subiría,
52,condition1,ar,cenar,j,1639,703,aremos,target,cenaremos,
52,condition1,ar,sauar,f,689,704,aría,distractor,sauaría,
52,condition1,ar,eplar,f,751,705,aría,distractor,eplaría,
52,condition1,ar,chanrar,f,856,706,aría,distractor,chanraría,
52,condition1,ar,clartar,f,800,707,abas,distractor,clartabas,
52,condition1,ir,cubrir,j,888,708,irán,target,cubrirán,
52,condition1,er,seper,f,1608,709,eríamos,distractor,seperíamos,
52,condition1,er,faner,f,825,710,ían,distractor,fanían,
52,condition1,er,leer,j,871,711,erán,target,leerán,
52,condition1,ar,obrar,j,1016,712,aba,target,obraba,
52,condition1,ar,fautrar,f,2583,713,aríamos,distractor,fautraríamos,
52,condition1,ar,pavar,f,809,714,abas,distractor,pavabas,
52,condition1,ir,unir,j,1207,715,iríamos,target,uniríamos,
52,condition1,ar,retar,j,817,716,abas,target,retabas,
52,condition1,ar,bimar,f,832,717,aremos,distractor,bimaremos,
52,condition1,er,vender,j,1359,718,íamos,target,vendíamos,
52,condition1,ir,subir,j,689,719,ías,target,subías,
52,condition1,er,vender,j,1311,720,erían,target,venderían,
52,condition1,er,arder,j,1071,721,eríamos,target,arderíamos,
52,condition1,ir,cichir,f,1097,722,irán,distractor,cichirán,
52,condition1,ar,cetar,f,985,723,aban,distractor,cetaban,
52,condition1,ar,focar,f,1838,724,abas,distractor,focabas,
52,condition1,ir,bruvir,f,568,725,irán,distractor,bruvirán,
52,condition1,ar,pactar,j,1720,726,aría,target,pactaría,
52,condition1,ar,quijar,j,4096,727,arás,distractor,quijarás,
52,condition1,er,toser,j,1288,728,ías,target,tosías,
52,condition1,er,correr,j,1064,729,erás,target,correrás,
52,condition1,er,frinder,f,2232,730,ía,distractor,frindía,
52,condition1,ar,retar,j,1720,731,aban,target,retaban,
52,condition1,ir,fundir,j,856,732,íamos,target,fundíamos,
52,condition1,ar,gachar,f,758,733,aré,distractor,gacharé,
52,condition1,ar,galar,f,937,734,aremos,distractor,galaremos,
52,condition1,er,creer,j,776,735,eremos,target,creeremos,
52,condition1,ar,mertar,f,1232,736,aba,distractor,mertaba,
52,condition1,er,hier,f,3623,737,erán,distractor,hierán,
52,condition1,er,vender,j,729,738,erá,target,venderá,
52,condition1,ar,rimar,j,2688,739,arán,target,rimarán,
52,condition1,ar,limar,j,2208,740,ábamos,target,limábamos,
52,condition1,er,leer,j,783,741,eríamos,target,leeríamos,
52,condition1,ar,dachar,f,1184,742,ará,distractor,dachará,
52,condition1,ir,partir,j,1641,743,irás,target,partirás,
52,condition1,er,clier,f,824,744,erían,distractor,clierían,
52,condition1,ir,gamir,f,1312,745,ía,distractor,gamía,
52,condition1,ar,mertar,f,1064,746,abas,distractor,mertabas,
52,condition1,ar,burrar,f,2279,747,aban,distractor,burraban,
52,condition1,er,prender,j,1281,748,eríamos,target,prenderíamos,
52,condition1,er,ciper,f,703,749,erá,distractor,ciperá,
52,condition1,er,creer,j,1072,750,íamos,target,creíamos,
52,condition1,er,seper,f,1433,751,erían,distractor,seperían,
52,condition1,ar,plantar,j,1137,752,aríamos,target,plantaríamos,
52,condition1,ir,subir,j,751,753,irás,target,subirás,
52,condition1,ar,jurar,j,1560,754,aríamos,target,juraríamos,
52,condition1,er,anrer,f,1104,755,eremos,distractor,anreremos,
52,condition1,ar,lorgar,f,1152,756,ábamos,distractor,lorgábamos,
52,condition1,ar,rimar,j,1000,757,aban,target,rimaban,
52,condition1,ar,focar,f,871,758,arán,distractor,focarán,
52,condition1,ar,hallar,j,704,759,ábamos,target,hallábamos,
52,condition1,er,morder,j,840,760,eríamos,target,morderíamos,
52,condition1,ar,galar,f,1015,761,aría,distractor,galaría,
52,condition1,ar,sauar,f,2567,762,arán,distractor,sauarán,
52,condition1,ar,vidar,f,889,763,arías,distractor,vidarías,
52,condition1,er,meter,j,930,764,ías,target,metías,
52,condition1,ar,fisar,f,893,765,aremos,distractor,fisaremos,
52,condition1,ar,rotar,j,817,766,ará,target,rotará,
52,condition1,ir,fundir,j,712,767,irían,target,fundirían,
52,condition1,ar,casar,j,656,768,aríamos,target,casaríamos,
52,condition1,ir,cumplir,j,664,769,íamos,target,cumplíamos,
52,condition1,ar,lorgar,j,648,770,aré,distractor,lorgaré,
52,condition1,ar,mertar,f,927,771,aré,distractor,mertaré,
52,condition1,ar,narrar,j,832,772,aremos,target,narraremos,
52,condition1,ir,gruñir,j,1366,773,iremos,target,gruñiremos,
52,condition1,ar,vidar,f,993,774,aba,distractor,vidaba,
52,condition1,er,ciper,f,912,775,erías,distractor,ciperías,
52,condition1,ar,mertar,f,1055,776,aremos,distractor,mertaremos,
52,condition1,er,temer,j,879,777,eré,target,temeré,
52,condition1,ar,quemar,j,824,778,ará,target,quemará,
52,condition1,ar,mertar,f,960,779,aría,distractor,mertaría,
52,condition1,ar,plantar,j,800,780,arían,target,plantarían,
52,condition1,er,comer,j,1454,781,eríamos,target,comeríamos,
52,condition1,er,ciper,f,665,782,ías,distractor,cipías,
52,condition1,ar,formar,j,680,783,arían,target,formarían,
52,condition1,er,ciper,f,928,784,erás,distractor,ciperás,
52,condition1,ar,hilar,j,2200,785,arás,target,hilarás,
52,condition1,ar,cetar,f,1383,786,aremos,distractor,cetaremos,
52,condition1,er,vender,j,1825,787,eremos,target,venderemos,
52,condition1,ir,fundir,j,864,788,ías,target,fundías,
52,condition1,er,toser,j,752,789,ían,target,tosían,
52,condition1,ar,samar,f,928,790,ará,distractor,samará,
52,condition1,er,somer,f,1080,791,erán,distractor,somerán,
52,condition1,ar,pactar,j,1568,792,ábamos,target,pactábamos,
52,condition1,ar,maftar,f,888,793,aremos,distractor,maftaremos,
52,condition1,er,correr,j,840,794,erá,target,correrá,
52,condition1,er,anrer,f,840,795,erá,distractor,anrerá,
52,condition1,ir,subir,j,703,796,ía,target,subía,
52,condition1,er,toser,j,890,797,erá,target,toserá,
52,condition1,er,anrer,f,1527,798,íamos,distractor,anríamos,
52,condition1,ar,limar,j,976,799,aban,target,limaban,
52,condition1,ar,cetar,f,1065,800,arías,distractor,cetarías,
52,condition1,ar,focar,j,2641,802,aban,distractor,focaban,
52,condition1,ir,fundir,j,744,803,iré,target,fundiré,
52,condition1,ar,vultar,f,816,804,ará,distractor,vultará,
52,condition1,ar,hallar,j,1752,805,aría,target,hallaría,
52,condition1,ir,cuarrir,f,1711,806,iré,distractor,cuarriré,
52,condition1,er,ceter,f,865,807,erán,distractor,ceterán,
52,condition1,ar,maftar,f,823,808,arán,distractor,maftarán,
52,condition1,ar,bailar,j,2384,809,arás,target,bailarás,
52,condition1,ar,pavar,f,671,810,aré,distractor,pavaré,
52,condition1,ir,gamir,f,753,811,ían,distractor,gamían,
52,condition1,ar,cortar,j,808,812,arán,target,cortarán,
52,condition1,ir,batir,j,1703,813,iremos,target,batiremos,
52,condition1,ar,rotar,j,681,814,aría,target,rotaría,
52,condition1,ar,sindar,f,776,815,arías,distractor,sindarías,
52,condition1,ar,fautrar,f,1880,816,aría,distractor,fautraría,
52,condition1,ar,dachar,f,1144,817,ábamos,distractor,dachábamos,
52,condition1,ir,cumplir,j,887,818,iremos,target,cumpliremos,
52,condition1,er,tejer,j,760,819,ían,target,tejían,
52,condition1,ar,sindar,f,791,820,arás,distractor,sindarás,
52,condition1,ar,quijar,f,1113,821,aban,distractor,quijaban,
52,condition1,ar,nadar,j,959,822,aban,target,nadaban,
52,condition1,ar,fisar,f,889,823,abas,distractor,fisabas,
52,condition1,er,ceder,j,1296,824,erás,target,cederás,
52,condition1,er,meter,j,855,825,íamos,target,metíamos,
52,condition1,ar,runar,f,817,826,aban,distractor,runaban,
52,condition1,er,arder,j,680,827,ía,target,ardía,
52,condition1,ir,cichir,f,1161,828,irían,distractor,cichirían,
52,condition1,ar,quemar,j,663,829,arías,target,quemarías,
52,condition1,er,honder,f,775,830,ías,distractor,hondías,
52,condition1,ir,sufrir,j,841,831,irían,target,sufrirían,
52,condition1,er,barrer,j,920,832,erían,target,barrerían,
52,condition1,ar,besar,j,824,833,arás,target,besarás,
52,condition1,er,cefler,f,752,834,eremos,distractor,cefleremos,
52,condition1,ir,unir,j,647,835,ían,target,unían,
52,condition1,ar,casar,j,1177,836,arán,target,casarán,
52,condition1,ar,clartar,f,1007,837,arás,distractor,clartarás,
52,condition1,er,comer,j,567,838,erían,target,comerían,
52,condition1,ar,casar,j,657,839,aremos,target,casaremos,
52,condition1,ar,samar,f,942,840,ábamos,distractor,samábamos,
52,condition1,ir,cichir,f,888,841,íamos,distractor,cichíamos,
52,condition1,ar,fisar,f,792,842,ábamos,distractor,fisábamos,
52,condition1,er,honder,f,759,843,íamos,distractor,hondíamos,
52,condition1,ar,cenar,j,825,844,abas,target,cenabas,
52,condition1,ar,plantar,j,776,845,arás,target,plantarás,
52,condition1,er,lamer,j,808,846,íamos,target,lamíamos,
52,condition1,ir,batir,j,1023,847,iría,target,batiría,
52,condition1,ar,galar,f,889,848,arás,distractor,galarás,
52,condition1,ar,rayar,j,623,849,abas,target,rayabas,
52,condition1,ar,sindar,f,841,850,aría,distractor,sindaría,
52,condition1,er,vender,j,1143,851,eríamos,target,venderíamos,
52,condition1,er,moncer,f,1696,852,eré,distractor,monceré,
52,condition1,ar,burrar,j,1952,853,arían,distractor,burrarían,
52,condition1,ir,tuplir,f,920,854,irá,distractor,tuplirá,
52,condition1,ar,plantar,j,680,855,aba,target,plantaba,
52,condition1,ar,sauar,f,1168,856,abas,distractor,sauabas,
52,condition1,ar,vidar,f,984,857,aremos,distractor,vidaremos,
52,condition1,ar,eplar,f,768,858,arán,distractor,eplarán,
52,condition1,ar,bigar,f,920,859,ará,distractor,bigará,
52,condition1,ar,fisar,f,704,860,ará,distractor,fisará,
52,condition1,ir,cubrir,j,936,861,ías,target,cubrías,
52,condition1,ar,galar,f,729,862,arán,distractor,galarán,
52,condition1,er,comer,j,735,863,ías,target,comías,
52,condition1,ir,batir,j,776,864,ías,target,batías,
52,condition1,ir,cubrir,j,896,865,íamos,target,cubríamos,
52,condition1,er,lacher,f,977,866,erán,distractor,lacherán,
52,condition1,ar,maftar,f,726,867,aría,distractor,maftaría,
52,condition1,er,hier,f,953,868,ías,distractor,hiías,
52,condition1,ar,bimar,f,1128,869,aban,distractor,bimaban,
52,condition1,ar,lailar,f,1512,870,ará,distractor,lailará,
52,condition1,er,temer,j,784,871,ías,target,temías,
52,condition1,er,arder,j,688,872,íamos,target,ardíamos,
52,condition1,ar,nadar,j,1041,873,arás,target,nadarás,
52,condition1,ar,fisar,j,1910,874,aría,distractor,fisaría,
52,condition1,ar,vultar,f,752,875,aré,distractor,vultaré,
52,condition1,ir,fundir,j,1864,876,iremos,target,fundiremos,
52,condition1,ir,partir,j,881,877,iré,target,partiré,
52,condition1,ir,cichir,f,810,878,ía,distractor,cichía,
52,condition1,ar,limar,f,3263,879,arían,target,limarían,
52,condition1,ar,mertar,f,1103,880,aríamos,distractor,mertaríamos,
52,condition1,ir,gruñir,j,1736,881,iríamos,target,gruñiríamos,
52,condition1,ir,cubrir,j,688,882,ían,target,cubrían,
52,condition1,ir,partir,j,648,883,irías,target,partirías,
52,condition1,ar,besar,j,648,884,abas,target,besabas,
52,condition1,er,vender,j,600,885,erías,target,venderías,
52,condition1,ar,dachar,f,903,886,aban,distractor,dachaban,
52,condition1,er,ceter,f,759,887,erá,distractor,ceterá,
52,condition1,ar,cenar,j,952,888,arán,target,cenarán,
52,condition1,ar,hilar,j,1536,889,arían,target,hilarían,
52,condition1,er,hier,f,2072,890,eremos,distractor,hieremos,
52,condition1,ar,limar,j,1328,891,aríamos,target,limaríamos,
52,condition1,ir,unir,j,1185,892,iría,target,uniría,
52,condition1,er,somer,f,1062,893,ías,distractor,somías,
52,condition1,er,clier,f,1495,894,íamos,distractor,cliíamos,
52,condition1,ir,bruvir,f,880,895,irás,distractor,bruvirás,
52,condition1,ir,luntir,f,969,896,íamos,distractor,luntíamos,
52,condition1,er,porer,f,1063,897,erían,distractor,porerían,
52,condition1,ar,charlar,f,680,898,arán,target,charlarán,
52,condition1,ar,ciser,f,600,899,ará,distractor,cisará,
52,condition1,ar,pavar,f,1776,900,aremos,distractor,pavaremos,
52,condition1,ar,cortar,j,872,901,aban,target,cortaban,
52,condition1,ar,durar,j,720,902,aban,target,duraban,
52,condition1,er,coser,j,657,903,ía,target,cosía,
52,condition1,ar,eplar,f,775,904,arían,distractor,eplarían,
52,condition1,er,ceter,f,1242,905,ía,distractor,cetía,
52,condition1,ar,samar,f,1142,906,abas,distractor,samabas,
52,condition1,ar,maftar,f,1328,907,abas,distractor,maftabas,
52,condition1,ar,gachar,f,1784,908,aban,distractor,gachaban,
52,condition1,er,riter,f,2872,909,erían,distractor,riterían,
52,condition1,ar,vultar,f,896,910,aremos,distractor,vultaremos,
52,condition1,ir,cuarrir,f,2921,911,iría,distractor,cuarriría,
52,condition1,ar,jurar,j,719,912,ábamos,target,jurábamos,
52,condition1,ar,vultar,f,1185,913,arías,distractor,vultarías,
52,condition1,er,cefler,f,983,914,erán,distractor,ceflerán,
52,condition1,ar,lailar,f,712,915,aré,distractor,lailaré,
52,condition1,er,raber,f,1048,916,eríamos,distractor,raberíamos,
52,condition1,ar,gachar,f,1208,917,ábamos,distractor,gachábamos,
52,condition1,er,arder,j,792,918,ería,target,ardería,
52,condition1,ir,tujir,f,1480,919,ían,distractor,tujían,
52,condition1,er,ciper,f,713,920,erían,distractor,ciperían,
52,condition1,ar,ciser,f,1287,921,arás,distractor,cisarás,
52,condition1,ar,dachar,f,1977,922,arán,distractor,dacharán,
52,condition1,ar,hallar,j,879,923,arías,target,hallarías,
52,condition1,ar,sindar,f,759,924,ará,distractor,sindará,
52,condition1,ir,sufrir,j,769,925,iríamos,target,sufriríamos,
52,condition1,er,ceder,j,1032,926,eré,target,cederé,
52,condition1,ar,runar,f,872,927,aríamos,distractor,runaríamos,
52,condition1,ar,gunar,f,968,928,abas,distractor,gunabas,
52,condition1,er,seser,f,1615,929,eríamos,distractor,seseríamos,
52,condition1,er,anrer,f,1665,930,erían,distractor,anrerían,
52,condition1,ar,eplar,f,2231,931,arás,distractor,eplarás,
52,condition1,ar,rotar,j,1224,932,arías,target,rotarías,
52,condition1,ir,fundir,j,2744,933,ían,target,fundían,
52,condition1,ar,durar,j,840,934,aremos,target,duraremos,
52,condition1,ar,lailar,f,844,935,aremos,distractor,lailaremos,
52,condition1,ar,ciser,f,1179,936,aban,distractor,cisaban,
52,condition1,ar,runar,f,880,937,aré,distractor,runaré,
52,condition1,er,moncer,j,2641,938,eremos,distractor,monceremos,
52,condition1,ar,quemar,j,775,939,aremos,target,quemaremos,
52,condition1,ar,vultar,f,784,940,aba,distractor,vultaba,
52,condition1,ir,gruñir,j,1712,941,iría,target,gruñiría,
52,condition1,er,raber,f,1063,942,ían,distractor,rabían,
52,condition1,ar,bigar,f,896,943,aremos,distractor,bigaremos,
52,condition1,ar,mertar,f,1064,944,arán,distractor,mertarán,
52,condition1,er,faner,f,1264,945,ías,distractor,fanías,
52,condition1,ir,gamir,f,912,946,ías,distractor,gamías,
52,condition1,er,seser,f,2231,947,ían,distractor,sesían,
52,condition1,ar,runar,f,742,948,arías,distractor,runarías,
52,condition1,ar,sumar,f,1249,949,aré,target,sumaré,
52,condition1,ir,gamir,f,776,950,irás,distractor,gamirás,
52,condition1,ar,tasar,f,872,951,aría,target,tasaría,
52,condition1,er,tañer,f,832,952,erá,target,tañerá,
52,condition1,er,leer,j,743,953,ería,target,leería,
52,condition1,ar,rotar,j,1025,954,arán,target,rotarán,
52,condition1,er,leer,j,728,955,erían,target,leerían,
52,condition1,ir,cuarrir,f,880,956,irán,distractor,cuarrirán,
52,condition1,ar,narrar,j,783,957,aría,target,narraría,
52,condition1,ar,quemar,j,633,958,arán,target,quemarán,
52,condition1,ar,maftar,f,768,959,aban,distractor,maftaban,
52,condition1,ar,focar,f,1280,960,arías,distractor,focarías,
52,condition1,ar,lailar,f,720,961,aban,distractor,lailaban,
52,condition1,er,comer,j,759,962,erán,target,comerán,
52,condition1,ir,sufrir,j,657,963,iría,target,sufriría,
52,condition1,er,riter,f,1392,964,íamos,distractor,ritíamos,
52,condition1,er,creer,j,839,965,ías,target,creías,
52,condition1,er,ceder,j,1785,966,erían,target,cederían,
52,condition1,er,raber,f,863,967,eré,distractor,raberé,
52,condition1,er,barrer,j,4145,968,erás,target,barrerás,
52,condition1,ir,tujir,f,1223,969,irás,distractor,tujirás,
52,condition1,ar,rondar,j,1046,970,aré,target,rondaré,
52,condition1,ar,cortar,j,826,971,aremos,target,cortaremos,
52,condition1,ir,partir,j,807,972,ían,target,partían,
52,condition1,ar,filtrar,j,1455,973,aríamos,target,filtraríamos,
52,condition1,er,frinder,f,1889,974,eremos,distractor,frinderemos,
52,condition1,ar,nadar,j,2023,975,aríamos,target,nadaríamos,
52,condition1,er,seper,f,2102,976,erá,distractor,seperá,
52,condition1,ir,gruñir,j,991,977,ían,target,gruñían,
52,condition1,ir,cuarrir,f,841,978,iríamos,distractor,cuarriríamos,
52,condition1,ar,hilar,j,768,979,abas,target,hilabas,
52,condition1,ar,chanrar,f,984,980,aremos,distractor,chanraremos,
52,condition1,ar,vidar,f,856,981,ábamos,distractor,vidábamos,
52,condition1,ar,runar,f,1007,982,ará,distractor,runará,
52,condition1,er,honder,f,599,983,eré,distractor,honderé,
52,condition1,er,lacher,f,665,984,erías,distractor,lacherías,
52,condition1,ar,samar,f,552,985,aría,distractor,samaría,
52,condition1,er,lacher,f,968,986,eremos,distractor,lacheremos,
52,condition1,ar,samar,f,727,987,aríamos,distractor,samaríamos,
52,condition1,er,correr,j,1143,988,ería,target,correría,
52,condition1,er,lamer,j,985,989,erás,target,lamerás,
52,condition1,ar,sauar,f,832,990,aban,distractor,sauaban,
52,condition1,ar,jurar,j,680,991,aría,target,juraría,
52,condition1,er,honder,f,1224,992,eremos,distractor,honderemos,
52,condition1,er,correr,j,600,993,ía,target,corría,
52,condition1,ar,pactar,j,991,994,aba,target,pactaba,
52,condition1,ar,cetar,f,736,995,ábamos,distractor,cetábamos,
52,condition1,ar,focar,f,1848,996,aría,distractor,focaría,
52,condition1,ar,obrar,j,1047,997,arás,target,obrarás,
52,condition1,ar,quemar,j,1560,998,arás,target,quemarás,
52,condition1,ar,charlar,j,1247,999,aríamos,target,charlaríamos,
52,condition1,ar,tasar,j,919,1000,ará,target,tasará,
52,condition1,ir,cubrir,j,1821,1002,irá,target,cubrirá,
52,condition1,er,temer,j,840,1003,erá,target,temerá,
52,condition1,ir,cubrir,j,1319,1004,iría,target,cubriría,
52,condition1,ar,sumar,j,1128,1005,arías,target,sumarías,
52,condition1,ar,hilar,j,880,1006,aría,target,hilaría,
52,condition1,ar,luchar,j,695,1007,aré,target,lucharé,
52,condition1,ar,cenar,j,880,1008,aré,target,cenaré,
52,condition1,ar,pavar,f,872,1009,arían,distractor,pavarían,
52,condition1,ar,samar,f,1112,1010,aban,distractor,samaban,
52,condition1,er,seper,f,1504,1011,erás,distractor,seperás,
52,condition1,ar,narrar,j,743,1012,arías,target,narrarías,
52,condition1,ar,filtrar,j,2384,1013,aré,target,filtraré,
52,condition1,ir,mardir,f,1007,1014,ían,distractor,mardían,
52,condition1,er,morder,j,768,1015,ía,target,mordía,
52,condition1,ar,pactar,j,1273,1016,ará,target,pactará,
52,condition1,ar,filtrar,f,1648,1017,arás,target,filtrarás,
52,condition1,ar,limar,f,1040,1018,arán,target,limarán,
52,condition1,er,ceder,f,1096,1019,íamos,target,cedíamos,
52,condition1,ar,chanrar,f,3017,1020,arás,distractor,chanrarás,
52,condition1,ar,retar,j,1223,1021,aré,target,retaré,
52,condition1,er,barrer,j,1399,1022,eremos,target,barreremos,
52,condition1,ar,charlar,j,2209,1023,ábamos,target,charlábamos,
52,condition1,ar,rimar,f,1617,1024,arían,target,rimarían,
52,condition1,ar,bimar,f,990,1025,ábamos,distractor,bimábamos,
52,condition1,ar,rayar,j,640,1026,arán,target,rayarán,
52,condition1,ir,batir,j,1480,1027,ían,target,batían,
52,condition1,er,comer,j,600,1028,ía,target,comía,
52,condition1,er,lacher,f,1031,1029,ían,distractor,lachían,
52,condition1,ar,cenar,j,842,1030,arás,target,cenarás,
52,condition1,ar,retar,j,1199,1031,arán,target,retarán,
52,condition1,ar,dachar,f,1128,1032,aré,distractor,dacharé,
52,condition1,ar,quemar,j,848,1033,aba,target,quemaba,
52,condition1,ar,mertar,f,1440,1034,arás,distractor,mertarás,
52,condition1,er,hier,f,1160,1035,eré,distractor,hieré,
52,condition1,ir,fundir,j,1080,1036,irás,target,fundirás,
52,condition1,er,ceter,f,1200,1037,erían,distractor,ceterían,
52,condition1,er,ceter,f,2000,1038,erás,distractor,ceterás,
52,condition1,ar,charlar,j,840,1039,aba,target,charlaba,
52,condition1,ar,nadar,j,807,1040,aba,target,nadaba,
52,condition1,er,lacher,f,1329,1041,erá,distractor,lacherá,
52,condition1,er,ceter,f,2127,1042,eré,distractor,ceteré,
52,condition1,ir,luntir,f,1471,1043,iríamos,distractor,luntiríamos,
52,condition1,ar,luchar,j,753,1044,ará,target,luchará,
52,condition1,er,lacher,f,1616,1045,ía,distractor,lachía,
52,condition1,ar,durar,j,904,1046,abas,target,durabas,
52,condition1,ar,bimar,f,743,1047,abas,distractor,bimabas,
52,condition1,er,morder,j,768,1048,ería,target,mordería,
52,condition1,ir,tujir,f,1128,1049,iremos,distractor,tujiremos,
52,condition1,er,correr,j,992,1050,ías,target,corrías,
52,condition1,er,cefler,f,703,1051,ía,distractor,ceflía,
52,condition1,ar,lorgar,f,1216,1052,arán,distractor,lorgarán,
52,condition1,er,temer,j,1007,1053,ía,target,temía,
52,condition1,ar,pactar,j,1505,1054,arían,target,pactarían,
52,condition1,er,moncer,f,1016,1055,ías,distractor,moncías,
52,condition1,ir,cumplir,j,703,1056,irás,target,cumplirás,
52,condition1,er,porer,f,784,1057,ía,distractor,poría,
52,condition1,er,riter,f,913,1058,ías,distractor,ritías,
52,condition1,er,faner,f,815,1059,ería,distractor,fanería,
52,condition1,er,ceder,j,1214,1060,erías,target,cederías,
52,condition1,er,seper,f,1176,1061,erías,distractor,seperías,
52,condition1,er,vender,j,1464,1062,erás,target,venderás,
52,condition1,ar,durar,j,800,1063,aría,target,duraría,
52,condition1,ar,dachar,f,1143,1064,arías,distractor,dacharías,
52,condition1,er,leer,j,834,1065,ías,target,leías,
52,condition1,ir,cichir,f,1401,1066,iríamos,distractor,cichiríamos,
52,condition1,ar,casar,j,829,1067,aban,target,casaban,
52,condition1,er,barrer,j,1338,1068,erán,target,barrerán,
52,condition1,ar,rayar,j,799,1069,aré,target,rayaré,
52,condition1,er,riter,f,2535,1070,erá,distractor,riterá,
52,condition1,ir,sufrir,j,832,1071,irán,target,sufrirán,
52,condition1,ar,faltar,j,1033,1072,aríamos,target,faltaríamos,
52,condition1,er,tañer,f,1055,1073,erían,target,tañerían,
52,condition1,ar,cortar,j,1712,1074,arían,target,cortarían,
52,condition1,ir,cichir,f,704,1075,iría,distractor,cichiría,
52,condition1,er,seser,j,3729,1076,erán,distractor,seserán,
52,condition1,er,porer,f,805,1077,erán,distractor,porerán,
52,condition1,ar,sindar,f,1216,1078,ábamos,distractor,sindábamos,
52,condition1,er,temer,j,2010,1079,erán,target,temerán,
52,condition1,ar,lorgar,f,1095,1080,aría,distractor,lorgaría,
52,condition1,ar,zusar,f,791,1081,aba,distractor,zusaba,
52,condition1,ar,jurar,j,1058,1082,ará,target,jurará,
52,condition1,er,honder,f,775,1083,erían,distractor,honderían,
52,condition1,ar,pavar,f,792,1084,aban,distractor,pavaban,
52,condition1,ar,obrar,j,792,1085,arías,target,obrarías,
52,condition1,ar,eplar,f,737,1086,aré,distractor,eplaré,
52,condition1,er,creer,j,742,1087,ía,target,creía,
52,condition1,ar,mertar,f,1057,1088,ábamos,distractor,mertábamos,
52,condition1,ar,quemar,j,600,1089,aría,target,quemaría,
52,condition1,ar,lorgar,f,1176,1090,aríamos,distractor,lorgaríamos,
52,condition1,ar,charlar,j,1544,1091,aré,target,charlaré,
52,condition1,ar,obrar,j,1368,1092,aría,target,obraría,
52,condition1,er,anrer,f,768,1093,eré,distractor,anreré,
52,condition1,ir,unir,j,1640,1094,irás,target,unirás,
52,condition1,er,seser,f,2552,1095,ía,distractor,sesía,
52,condition1,ir,imir,f,2319,1096,irás,distractor,imirás,
52,condition1,er,tañer,f,847,1097,eré,target,tañeré,
52,condition1,er,coser,j,4130,1098,eríamos,target,coseríamos,
52,condition1,ir,partir,j,4654,1099,iría,target,partiría,
52,condition1,er,temer,j,4913,1100,eremos,target,temeremos,
52,condition1,ar,maftar,f,728,1101,aba,distractor,maftaba,
52,condition1,er,ciper,f,1679,1102,eremos,distractor,ciperemos,
52,condition1,ir,tujir,f,1601,1103,irá,distractor,tujirá,
52,condition1,ar,pavar,f,1296,1104,arás,distractor,pavarás,
52,condition1,ar,burrar,f,2320,1105,ará,distractor,burrará,
52,condition1,ar,rimar,f,759,1106,arás,target,rimarás,
52,condition1,ar,zusar,f,752,1107,aría,distractor,zusaría,
52,condition1,ir,mardir,f,1232,1108,irías,distractor,mardirías,
52,condition1,ir,tujir,f,856,1109,íamos,distractor,tujíamos,
52,condition1,ir,bruvir,f,664,1110,ías,distractor,bruvías,
52,condition1,er,seser,f,944,1111,eré,distractor,seseré,
52,condition1,er,clier,f,1639,1112,eremos,distractor,clieremos,
52,condition1,ar,sumar,f,1610,1113,arán,target,sumarán,
52,condition1,ir,tuplir,f,927,1114,irás,distractor,tuplirás,
52,condition1,ar,mertar,f,768,1115,ará,distractor,mertará,
52,condition1,ir,cichir,f,854,1116,irías,distractor,cichirías,
52,condition1,er,ciper,f,561,1117,erán,distractor,ciperán,
52,condition1,ir,cuarrir,f,584,1118,irías,distractor,cuarrirías,
52,condition1,er,somer,f,576,1119,ería,distractor,somería,
52,condition1,ar,nadar,j,1088,1120,arías,target,nadarías,
52,condition1,ar,bailar,j,1048,1121,aremos,target,bailaremos,
52,condition1,er,riter,f,2768,1122,eríamos,distractor,riteríamos,
52,condition1,ar,lailar,f,799,1123,arán,distractor,lailarán,
52,condition1,ar,quijar,j,2664,1124,aré,distractor,quijaré,
52,condition1,ar,limar,j,1016,1125,ará,target,limará,
52,condition1,er,moncer,j,1752,1126,eríamos,distractor,monceríamos,
52,condition1,ir,fundir,j,1024,1127,iríamos,target,fundiríamos,
52,condition1,er,clier,f,744,1128,ían,distractor,cliían,
52,condition1,ar,rimar,j,912,1129,ará,target,rimará,
52,condition1,ar,clartar,f,1151,1130,aban,distractor,clartaban,
52,condition1,ar,rotar,j,1065,1131,arás,target,rotarás,
52,condition1,er,faner,f,928,1132,erás,distractor,fanerás,
52,condition1,ar,limar,j,2599,1133,aremos,target,limaremos,
52,condition1,ar,clartar,f,1343,1134,arían,distractor,clartarían,
52,condition1,ar,charlar,j,3176,1135,aría,target,charlaría,
52,condition1,er,honder,f,815,1136,erán,distractor,honderán,
52,condition1,ir,gruñir,j,1721,1137,ía,target,gruñía,
52,condition1,er,leer,j,672,1138,eré,target,leeré,
52,condition1,er,frinder,f,2480,1139,erás,distractor,frinderás,
52,condition1,ar,cenar,j,760,1140,aban,target,cenaban,
52,condition1,ar,runar,f,1143,1141,aremos,distractor,runaremos,
52,condition1,er,barrer,j,673,1142,ías,target,barrías,
52,condition1,ir,imir,f,679,1143,ía,distractor,imía,
52,condition1,ar,runar,f,938,1144,ábamos,distractor,runábamos,
52,condition1,ir,gruñir,j,1021,1145,ías,target,gruñías,
52,condition1,ar,ciser,f,905,1146,aré,distractor,cisaré,
52,condition1,ar,focar,f,983,1147,ábamos,distractor,focábamos,
52,condition1,ar,fautrar,f,1063,1148,aban,distractor,fautraban,
52,condition1,ar,bailar,j,799,1149,ará,target,bailará,
52,condition1,ar,narrar,j,951,1150,arán,target,narrarán,
52,condition1,ar,sumar,j,784,1151,ábamos,target,sumábamos,
52,condition1,er,creer,j,735,1152,erían,target,creerían,
52,condition1,er,meter,j,2543,1153,ería,target,metería,
52,condition1,ar,bimar,f,935,1154,arías,distractor,bimarías,
52,condition1,ar,focar,f,1408,1155,arás,distractor,focarás,
52,condition1,ar,sindar,f,882,1156,aré,distractor,sindaré,
52,condition1,ar,dachar,f,1038,1157,aba,distractor,dachaba,
52,condition1,ar,bailar,j,1775,1158,arías,target,bailarías,
52,condition1,ar,zusar,f,632,1159,aban,distractor,zusaban,
52,condition1,er,porer,f,1048,1160,erías,distractor,porerías,
52,condition1,er,porer,f,1127,1161,erás,distractor,porerás,
52,condition1,ar,rimar,f,1352,1162,aríamos,target,rimaríamos,
52,condition1,ir,tujir,f,656,1163,irán,distractor,tujirán,
52,condition1,ir,tujir,f,559,1164,ía,distractor,tujía,
52,condition1,ar,vidar,f,751,1165,abas,distractor,vidabas,
52,condition1,ar,chanrar,f,569,1166,ará,distractor,chanrará,
52,condition1,ar,clartar,f,673,1167,arías,distractor,clartarías,
52,condition1,ir,tuplir,f,750,1168,irían,distractor,tuplirían,
52,condition1,ar,jurar,j,856,1169,aba,target,juraba,
52,condition1,ar,fautrar,f,744,1170,ará,distractor,fautrará,
52,condition1,ar,obrar,j,729,1171,aré,target,obraré,
52,condition1,ir,luntir,f,744,1172,irían,distractor,luntirían,
52,condition1,ar,filtrar,j,1617,1173,aría,target,filtraría,
52,condition1,ir,gamir,f,1679,1174,íamos,distractor,gamíamos,
52,condition1,er,tañer,f,887,1175,erías,target,tañerías,
52,condition1,ir,cubrir,j,967,1176,iremos,target,cubriremos,
52,condition1,ir,fundir,j,1858,1177,irán,target,fundirán,
52,condition1,ar,samar,f,815,1178,aba,distractor,samaba,
52,condition1,ar,gachar,f,1136,1179,abas,distractor,gachabas,
52,condition1,er,somer,j,2222,1180,erá,distractor,somerá,
52,condition1,ar,formar,j,1810,1181,arán,target,formarán,
52,condition1,ar,durar,j,1783,1182,arán,target,durarán,
52,condition1,ar,narrar,j,4296,1183,arían,target,narrarían,
52,condition1,er,tejer,j,1088,1184,erá,target,tejerá,
52,condition1,er,cefler,f,1103,1185,eríamos,distractor,cefleríamos,
52,condition1,ar,faltar,j,888,1186,abas,target,faltabas,
52,condition1,ar,rayar,j,2610,1187,arás,target,rayarás,
52,condition1,ar,runar,f,813,1188,aba,distractor,runaba,
52,condition1,ar,formar,j,1361,1189,aré,target,formaré,
52,condition1,ir,subir,j,2904,1190,irán,target,subirán,
52,condition1,er,creer,j,703,1191,ería,target,creería,
52,condition1,ar,gunar,f,887,1192,ará,distractor,gunará,
52,condition1,ar,bailar,j,2008,1193,aré,target,bailaré,
52,condition1,ir,cichir,f,2239,1194,iremos,distractor,cichiremos,
52,condition1,ar,fautrar,f,760,1195,arán,distractor,fautrarán,
52,condition1,ar,burrar,f,777,1196,aría,distractor,burraría,
52,condition1,er,tañer,f,823,1197,eríamos,target,tañeríamos,
52,condition1,ir,cumplir,j,1401,1198,irán,target,cumplirán,
52,condition1,ir,tuplir,f,1048,1199,ía,distractor,tuplía,
52,condition1,ar,zusar,f,784,1200,aremos,distractor,zusaremos,
52,condition1,ar,chanrar,f,1592,1202,arían,distractor,chanrarían,
52,condition1,ar,maftar,f,960,1203,arás,distractor,maftarás,
52,condition1,ir,sufrir,j,1680,1204,ían,target,sufrían,
52,condition1,er,moncer,j,2279,1205,erás,distractor,moncerás,
52,condition1,ar,gachar,f,792,1206,arían,distractor,gacharían,
52,condition1,ir,imir,f,640,1207,irán,distractor,imirán,
52,condition1,ar,galar,f,727,1208,aré,distractor,galaré,
52,condition1,ar,obrar,j,936,1209,ábamos,target,obrábamos,
52,condition1,ar,maftar,f,711,1210,aré,distractor,maftaré,
52,condition1,ir,mardir,f,751,1211,irán,distractor,mardirán,
52,condition1,ar,sumar,j,1064,1212,arían,target,sumarían,
52,condition1,er,creer,j,679,1213,eré,target,creeré,
52,condition1,ar,rotar,j,992,1214,aremos,target,rotaremos,
52,condition1,ir,gamir,f,745,1215,irías,distractor,gamirías,
52,condition1,ar,vultar,f,1088,1216,aríamos,distractor,vultaríamos,
52,condition1,ar,sauar,f,1031,1217,aba,distractor,sauaba,
52,condition1,ir,mardir,f,1039,1218,irían,distractor,mardirían,
52,condition1,ar,gunar,f,776,1219,aremos,distractor,gunaremos,
52,condition1,ar,quijar,f,1144,1220,arían,distractor,quijarían,
52,condition1,ar,clartar,f,1032,1221,ará,distractor,clartará,
52,condition1,er,hier,f,3383,1222,erías,distractor,hierías,
52,condition1,ar,limar,j,1096,1223,abas,target,limabas,
52,condition1,ar,plantar,j,808,1224,aré,target,plantaré,
52,condition1,er,prender,j,1295,1225,erían,target,prenderían,
52,condition1,er,cefler,f,680,1226,eré,distractor,cefleré,
52,condition1,er,vender,j,976,1227,ía,target,vendía,
52,condition1,ir,bruvir,f,760,1228,iremos,distractor,bruviremos,
52,condition1,ar,rotar,j,703,1229,aré,target,rotaré,
52,condition1,ar,samar,f,1184,1230,aré,distractor,samaré,
52,condition1,er,arder,j,1056,1231,erá,target,arderá,
52,condition1,er,riter,f,1159,1232,eré,distractor,riteré,
52,condition1,ar,retar,j,1809,1233,arían,target,retarían,
52,condition1,ar,zusar,f,638,1234,arán,distractor,zusarán,
52,condition1,er,frinder,f,849,1235,ías,distractor,frindías,
52,condition1,er,prender,j,729,1236,íamos,target,prendíamos,
52,condition1,ar,retar,j,1135,1237,ábamos,target,retábamos,
52,condition1,ar,filtrar,j,1480,1238,abas,target,filtrabas,
52,condition1,ar,rayar,j,727,1239,aría,target,rayaría,
52,condition1,ir,tuplir,f,768,1240,iré,distractor,tupliré,
52,condition1,er,faner,f,854,1241,erían,distractor,fanerían,
52,condition1,er,seper,f,1450,1242,ían,distractor,sepían,
52,condition1,ar,tasar,j,1046,1243,aba,target,tasaba,
52,condition1,er,vender,j,801,1244,ías,target,vendías,
52,condition1,ar,faltar,j,775,1245,arán,target,faltarán,
52,condition1,ar,charlar,j,920,1246,aban,target,charlaban,
52,condition1,er,barrer,j,880,1247,ía,target,barría,
52,condition1,er,lamer,j,584,1248,ías,target,lamías,
52,condition1,ir,tuplir,f,792,1249,ían,distractor,tuplían,
52,condition1,ar,dachar,f,902,1250,aremos,distractor,dacharemos,
52,condition1,er,correr,j,695,1251,eré,target,correré,
52,condition1,ar,runar,f,873,1252,arán,distractor,runarán,
52,condition1,ir,cumplir,j,719,1253,iré,target,cumpliré,
52,condition1,ar,rayar,j,735,1254,arían,target,rayarían,
52,condition1,ar,sauar,f,767,1255,ábamos,distractor,sauábamos,
52,condition1,ar,lailar,f,872,1256,aríamos,distractor,lailaríamos,
52,condition1,ar,besar,j,671,1257,arías,target,besarías,
52,condition1,ar,limar,j,799,1258,aba,target,limaba,
52,condition1,ar,casar,j,592,1259,ará,target,casará,
52,condition1,ar,hilar,f,806,1260,ará,target,hilará,
52,condition1,er,ceter,f,1264,1261,ían,distractor,cetían,
52,condition1,ar,sindar,f,616,1262,aban,distractor,sindaban,
52,condition1,ar,zusar,f,543,1263,ará,distractor,zusará,
52,condition1,er,toser,j,824,1264,ería,target,tosería,
52,condition1,ar,burrar,f,1016,1265,aremos,distractor,burraremos,
52,condition1,ar,zusar,f,800,1266,ábamos,distractor,zusábamos,
52,condition1,ir,mardir,f,1265,1267,iremos,distractor,mardiremos,
52,condition1,er,raber,f,1005,1268,eremos,distractor,raberemos,
52,condition1,ar,besar,j,704,1269,aban,target,besaban,
52,condition1,ar,jurar,j,792,1270,aremos,target,juraremos,
52,condition1,ar,pavar,f,823,1271,aríamos,distractor,pavaríamos,
52,condition1,ar,bailar,j,847,1272,aría,target,bailaría,
52,condition1,ir,imir,f,767,1273,iría,distractor,imiría,
52,condition1,ar,sindar,f,961,1274,aríamos,distractor,sindaríamos,
52,condition1,er,creer,j,599,1275,erás,target,creerás,
52,condition1,ir,unir,j,552,1276,irías,target,unirías,
52,condition1,er,correr,j,656,1277,eríamos,target,correríamos,
52,condition1,er,anrer,f,960,1278,ían,distractor,anrían,
52,condition1,ar,rondar,j,911,1279,aban,target,rondaban,
52,condition1,ar,focar,f,712,1280,aré,distractor,focaré,
52,condition1,ir,partir,j,831,1281,iríamos,target,partiríamos,
52,condition1,er,riter,f,889,1282,ería,distractor,ritería,
52,condition1,ar,rondar,j,648,1283,ábamos,target,rondábamos,
52,condition1,ir,cichir,f,879,1284,ían,distractor,cichían,
52,condition1,ar,jurar,j,656,1285,aban,target,juraban,
52,condition1,ar,gachar,f,1144,1286,aremos,distractor,gacharemos,
52,condition1,ir,cumplir,j,937,1287,irías,target,cumplirías,
52,condition1,er,ceter,f,2184,1288,ería,distractor,cetería,
52,condition1,ir,batir,f,832,1289,íamos,target,batíamos,
52,condition1,ar,formar,j,1647,1290,ará,target,formará,
52,condition1,er,cefler,f,1321,1291,erás,distractor,ceflerás,
52,condition1,ar,luchar,j,822,1292,aba,target,luchaba,
52,condition1,ar,cenar,j,1146,1293,ará,target,cenará,
52,condition1,ar,durar,j,1223,1294,aba,target,duraba,
52,condition1,ar,dachar,f,736,1295,aría,distractor,dacharía,
52,condition1,ar,narrar,j,712,1296,abas,target,narrabas,
52,condition1,ir,partir,j,672,1297,ía,target,partía,
52,condition1,ar,chanrar,f,1408,1298,abas,distractor,chanrabas,
52,condition1,ar,vultar,f,1001,1299,aría,distractor,vultaría,
52,condition1,ar,cenar,j,887,1300,aría,target,cenaría,
52,condition1,er,vender,j,704,1301,eré,target,venderé,
52,condition1,ar,bailar,j,776,1302,aba,target,bailaba,
52,condition1,ar,narrar,j,600,1303,aré,target,narraré,
52,condition1,er,ciper,f,784,1304,ían,distractor,cipían,
52,condition1,er,clier,f,968,1305,erán,distractor,clierán,
52,condition1,er,raber,f,577,1306,erán,distractor,raberán,
52,condition1,ar,samar,f,543,1307,aremos,distractor,samaremos,
52,condition1,er,lacher,f,760,1308,ías,distractor,lachías,
52,condition1,ir,tuplir,f,592,1309,irías,distractor,tuplirías,
52,condition1,ir,bruvir,f,576,1310,íamos,distractor,bruvíamos,
52,condition1,ir,imir,f,713,1311,iremos,distractor,imiremos,
52,condition1,er,raber,f,959,1312,ería,distractor,rabería,
52,condition1,ar,sindar,f,649,1313,aremos,distractor,sindaremos,
52,condition1,ar,formar,j,943,1314,ábamos,target,formábamos,
52,condition1,ar,cortar,j,743,1315,ará,target,cortará,
52,condition1,ir,batir,j,1870,1316,irías,target,batirías,
52,condition1,er,coser,j,936,1317,erías,target,coserías,
52,condition1,ir,luntir,f,866,1318,iremos,distractor,luntiremos,
52,condition1,ar,quemar,j,800,1319,arían,target,quemarían,
52,condition1,ar,faltar,j,1159,1320,arás,target,faltarás,
52,condition1,er,morder,j,1096,1321,íamos,target,mordíamos,
52,condition1,ir,mardir,f,1072,1322,irás,distractor,mardirás,
52,condition1,ar,bigar,f,825,1323,arías,distractor,bigarías,
52,condition1,ar,bailar,j,2743,1324,arían,target,bailarían,
52,condition1,er,comer,j,1599,1325,erás,target,comerás,
52,condition1,ar,dachar,f,881,1326,arían,distractor,dacharían,
52,condition1,ar,luchar,j,752,1327,abas,target,luchabas,
52,condition1,ir,cuarrir,f,752,1328,ía,distractor,cuarría,
52,condition1,ir,batir,j,728,1329,iré,target,batiré,
52,condition1,ar,sauar,f,840,1330,arías,distractor,sauarías,
52,condition1,er,correr,j,752,1331,eremos,target,correremos,
52,condition1,er,honder,f,1080,1332,erías,distractor,honderías,
52,condition1,ir,batir,j,791,1333,irás,target,batirás,
52,condition1,ar,besar,j,640,1334,aba,target,besaba,
52,condition1,ar,bigar,f,689,1335,aría,distractor,bigaría,
52,condition1,er,leer,j,687,1336,ían,target,leían,
52,condition1,ir,sufrir,j,680,1337,iré,target,sufriré,
52,condition1,ar,vidar,f,1033,1338,aban,distractor,vidaban,
52,condition1,ir,tujir,f,990,1339,iré,distractor,tujiré,
52,condition1,er,prender,j,1928,1340,erás,target,prenderás,
52,condition1,ar,casar,j,2289,1341,arían,target,casarían,
52,condition1,ir,luntir,f,1097,1342,ías,distractor,luntías,
52,condition1,ar,rondar,j,2647,1343,arán,target,rondarán,
52,condition1,ar,cortar,j,640,1344,arás,target,cortarás,
52,condition1,ar,bigar,f,783,1345,abas,distractor,bigabas,
52,condition1,er,ceter,f,2490,1346,eríamos,distractor,ceteríamos,
52,condition1,er,arder,j,1206,1347,eré,target,arderé,
52,condition1,ar,sumar,j,1657,1348,arás,target,sumarás,
52,condition1,ar,eplar,f,753,1349,ará,distractor,eplará,
52,condition1,er,honder,f,1191,1350,erás,distractor,honderás,
52,condition1,ar,obrar,j,752,1351,abas,target,obrabas,
52,condition1,ar,bimar,f,704,1352,aré,distractor,bimaré,
52,condition1,er,tañer,f,928,1353,ería,target,tañería,
52,condition1,ar,fautrar,f,1216,1354,abas,distractor,fautrabas,
52,condition1,er,coser,j,808,1355,ías,target,cosías,
52,condition1,ar,jurar,j,895,1356,arán,target,jurarán,
52,condition1,er,tejer,j,713,1357,erás,target,tejerás,
52,condition1,ar,retar,j,1008,1358,aba,target,retaba,
52,condition1,ir,partir,j,759,1359,irá,target,partirá,
52,condition1,er,riter,j,656,1360,ían,distractor,ritían,
52,condition1,ir,cichir,f,880,1361,irá,distractor,cichirá,
52,condition1,ar,tasar,j,921,1362,aremos,target,tasaremos,
52,condition1,ar,rayar,j,727,1363,aríamos,target,rayaríamos,
52,condition1,ar,focar,f,1273,1364,aba,distractor,focaba,
52,condition1,er,cefler,f,624,1365,erías,distractor,ceflerías,
52,condition1,er,tejer,f,1136,1366,erán,target,tejerán,
52,condition1,ar,bigar,f,488,1367,aríamos,distractor,bigaríamos,
52,condition1,er,ceter,f,751,1368,ías,distractor,cetías,
52,condition1,er,porer,f,1399,1369,ías,distractor,porías,
52,condition1,ir,gruñir,f,2047,1370,irá,target,gruñirá,
52,condition1,ir,gamir,f,936,1371,iría,distractor,gamiría,
52,condition1,ir,gamir,f,1350,1372,iré,distractor,gamiré,
52,condition1,ar,rayar,j,785,1373,aremos,target,rayaremos,
52,condition1,ar,casar,j,816,1374,abas,target,casabas,
52,condition1,ar,durar,j,968,1375,ábamos,target,durábamos,
52,condition1,er,cefler,f,696,1376,ías,distractor,ceflías,
52,condition1,ar,cortar,j,727,1377,aba,target,cortaba,
52,condition1,ar,quemar,j,1417,1378,aré,target,quemaré,
52,condition1,ar,luchar,j,816,1379,arías,target,lucharías,
52,condition1,ir,unir,j,1039,1380,íamos,target,uníamos,
52,condition1,ar,sindar,f,1713,1381,arían,distractor,sindarían,
52,condition1,ar,filtrar,j,1496,1382,arían,target,filtrarían,
52,condition1,ar,faltar,j,872,1383,aban,target,faltaban,
52,condition1,er,arder,j,816,1384,ían,target,ardían,
52,condition1,ar,lailar,f,2225,1385,arás,distractor,lailarás,
52,condition1,ar,cetar,f,911,1386,arían,distractor,cetarían,
52,condition1,ar,focar,f,1840,1387,ará,distractor,focará,
52,condition1,ar,eplar,f,1559,1388,ábamos,distractor,eplábamos,
52,condition1,ar,hallar,j,801,1389,aba,target,hallaba,
52,condition1,ir,partir,j,848,1390,íamos,target,partíamos,
52,condition1,ar,mertar,f,2447,1391,aban,distractor,mertaban,
52,condition1,er,coser,j,1377,1392,eremos,target,coseremos,
52,condition1,er,barrer,j,767,1393,ían,target,barrían,
52,condition1,ir,gruñir,j,1105,1394,irás,target,gruñirás,
52,condition1,ar,zusar,f,648,1395,aríamos,distractor,zusaríamos,
52,condition1,ar,luchar,j,696,1396,aban,target,luchaban,
52,condition1,er,coser,j,776,1397,ían,target,cosían,
52,condition1,ar,rayar,j,808,1398,aban,target,rayaban,
52,condition1,er,seser,j,1481,1399,erá,distractor,seserá,
52,condition1,ar,casar,j,934,1400,ábamos,target,casábamos,
52,condition1,ar,quijar,j,2018,1401,arías,distractor,quijarías,
52,condition1,ar,luchar,f,782,1402,arán,target,lucharán,
52,condition1,ar,besar,j,745,1403,aré,target,besaré,
52,condition1,ir,subir,j,1248,1404,iremos,target,subiremos,
52,condition1,ar,filtrar,j,1184,1405,aban,target,filtraban,
52,condition1,ar,besar,j,744,1406,aríamos,target,besaríamos,
52,condition1,ar,bailar,j,679,1407,aban,target,bailaban,
52,condition1,ar,hallar,j,665,1408,aré,target,hallaré,
52,condition1,ir,mardir,f,808,1409,ía,distractor,mardía,
52,condition1,er,faner,f,736,1410,erías,distractor,fanerías,
52,condition1,er,morder,j,1031,1411,erá,target,morderá,
52,condition1,ar,charlar,f,793,1412,arías,target,charlarías,
52,condition1,ir,bruvir,f,888,1413,iríamos,distractor,bruviríamos,
52,condition1,ar,galar,f,976,1414,aba,distractor,galaba,
52,condition1,ar,fautrar,f,775,1415,aré,distractor,fautraré,
52,condition1,ar,vultar,f,1288,1416,aban,distractor,vultaban,
52,condition1,er,frinder,f,792,1417,ería,distractor,frindería,
46,condition1,er,moncer,j,1901,8,erían,distractor,moncerían,
46,condition1,ar,pactar,j,1249,9,aría,target,pactaría,
46,condition1,ir,fundir,j,1240,10,ían,target,fundían,
46,condition1,ir,partir,j,858,11,íamos,target,partíamos,
46,condition1,er,arder,j,1058,12,erán,target,arderán,
46,condition1,er,correr,j,1250,13,eremos,target,correremos,
46,condition1,er,cefler,j,1251,14,íamos,distractor,ceflíamos,
46,condition1,ar,rondar,j,922,15,arás,target,rondarás,
46,condition1,er,lacher,j,1124,16,ías,distractor,lachías,
46,condition1,ar,lailar,j,1445,17,ará,distractor,lailará,
46,condition1,ar,hallar,j,829,18,ará,target,hallará,
46,condition1,er,tejer,j,828,19,erán,target,tejerán,
46,condition1,er,clier,j,1478,20,eríamos,distractor,clieríamos,
46,condition1,er,meter,j,838,21,erás,target,meterás,
46,condition1,ar,rayar,j,863,22,aríamos,target,rayaríamos,
46,condition1,ir,mardir,j,841,23,ía,distractor,mardía,
46,condition1,ar,fisar,j,1288,24,ará,distractor,fisará,
46,condition1,er,seser,j,1981,25,erían,distractor,seserían,
46,condition1,ar,runar,f,1257,26,aría,distractor,runaría,
46,condition1,ar,eplar,j,1591,27,aríamos,distractor,eplaríamos,
46,condition1,ar,plantar,j,844,28,ábamos,target,plantábamos,
46,condition1,ar,ciser,j,2534,29,arías,distractor,cisarías,
46,condition1,ar,quemar,j,927,30,abas,target,quemabas,
46,condition1,ar,sumar,j,906,31,arán,target,sumarán,
46,condition1,er,meter,j,738,32,eríamos,target,meteríamos,
46,condition1,ar,galar,f,2021,33,aban,distractor,galaban,
46,condition1,er,meter,j,606,34,eré,target,meteré,
46,condition1,ir,gamir,j,1804,35,ían,distractor,gamían,
46,condition1,ar,rondar,j,1372,36,aba,target,rondaba,
46,condition1,ir,cichir,f,1463,37,iríamos,distractor,cichiríamos,
46,condition1,ar,galar,j,1569,38,arán,distractor,galarán,
46,condition1,ar,sindar,f,1867,39,arían,distractor,sindarían,
46,condition1,ir,tuplir,j,1680,40,iríamos,distractor,tupliríamos,
46,condition1,ar,nadar,j,1434,41,ará,target,nadará,
46,condition1,er,lamer,j,1106,42,eremos,target,lameremos,
46,condition1,ar,runar,f,2402,43,aban,distractor,runaban,
46,condition1,er,clier,f,1349,44,erá,distractor,clierá,
46,condition1,ar,vultar,j,1719,45,aremos,distractor,vultaremos,
46,condition1,ar,burrar,f,1676,46,aríamos,distractor,burraríamos,
46,condition1,ir,luntir,j,929,47,íamos,distractor,luntíamos,
46,condition1,er,frinder,j,1555,48,íamos,distractor,frindíamos,
46,condition1,er,hier,j,1729,49,eremos,distractor,hieremos,
46,condition1,er,riter,j,2422,50,erán,distractor,riterán,
46,condition1,ar,rimar,j,1378,51,aría,target,rimaría,
46,condition1,ar,filtrar,j,730,52,aría,target,filtraría,
46,condition1,ar,quijar,j,900,53,arás,distractor,quijarás,
46,condition1,er,ceder,j,767,54,ería,target,cedería,
46,condition1,er,lacher,j,1213,55,erías,distractor,lacherías,
46,condition1,ar,chanrar,f,5012,56,aremos,distractor,chanraremos,
46,condition1,ar,sindar,j,1707,57,arías,distractor,sindarías,
46,condition1,ar,cenar,j,806,58,arás,target,cenarás,
46,condition1,ar,pactar,j,1072,59,ará,target,pactará,
46,condition1,er,porer,j,1664,60,eremos,distractor,poreremos,
46,condition1,er,ciper,j,1034,61,íamos,distractor,cipíamos,
46,condition1,er,cefler,j,1007,62,eremos,distractor,cefleremos,
46,condition1,ar,faltar,j,663,63,aré,target,faltaré,
46,condition1,er,toser,j,861,64,erían,target,toserían,
46,condition1,ar,gunar,f,1648,65,aríamos,distractor,gunaríamos,
46,condition1,ar,bigar,f,2430,66,arían,distractor,bigarían,
46,condition1,ir,sufrir,f,1030,67,iré,target,sufriré,
46,condition1,ar,formar,j,984,68,arían,target,formarían,
46,condition1,er,meter,j,845,69,erán,target,meterán,
46,condition1,ar,bigar,f,1319,70,arán,distractor,bigarán,
46,condition1,ar,durar,f,2445,71,arán,target,durarán,
46,condition1,ir,cuarrir,f,1447,72,irían,distractor,cuarrirían,
46,condition1,ar,rondar,j,850,73,arías,target,rondarías,
46,condition1,ar,focar,j,1098,74,arán,distractor,focarán,
46,condition1,ir,bruvir,j,1104,75,iré,distractor,bruviré,
46,condition1,er,leer,j,3430,76,erán,target,leerán,
46,condition1,ir,unir,j,549,77,ías,target,unías,
46,condition1,ir,tuplir,f,1070,78,iría,distractor,tupliría,
46,condition1,er,lacher,f,1947,79,erían,distractor,lacherían,
46,condition1,ar,runar,f,1062,80,arían,distractor,runarían,
46,condition1,er,vender,j,648,81,erá,target,venderá,
46,condition1,er,honder,j,913,82,erán,distractor,honderán,
46,condition1,ir,fundir,j,681,83,iría,target,fundiría,
46,condition1,ir,unir,j,679,84,íamos,target,uníamos,
46,condition1,ar,besar,j,827,85,abas,target,besabas,
46,condition1,ar,jurar,j,646,86,aban,target,juraban,
46,condition1,er,temer,j,844,87,eríamos,target,temeríamos,
46,condition1,ir,mardir,j,1369,88,ían,distractor,mardían,
46,condition1,er,seser,j,1096,89,ían,distractor,sesían,
46,condition1,er,tejer,j,802,90,eré,target,tejeré,
46,condition1,ir,tuplir,f,884,91,irías,distractor,tuplirías,
46,condition1,ar,clartar,f,2095,92,arán,distractor,clartarán,
46,condition1,er,seper,j,860,93,erás,distractor,seperás,
46,condition1,ar,bailar,j,874,94,aba,target,bailaba,
46,condition1,er,cefler,j,614,95,erás,distractor,ceflerás,
46,condition1,ar,besar,j,629,96,arían,target,besarían,
46,condition1,ar,galar,f,1474,97,ábamos,distractor,galábamos,
46,condition1,ar,sauar,f,1971,98,ábamos,distractor,sauábamos,
46,condition1,er,leer,j,610,99,ías,target,leías,
46,condition1,er,clier,j,1727,100,eré,distractor,clieré,
46,condition1,ar,pactar,j,614,101,aba,target,pactaba,
46,condition1,er,vender,j,824,102,eríamos,target,venderíamos,
46,condition1,ar,vultar,j,1298,103,arán,distractor,vultarán,
46,condition1,ir,fundir,j,1164,104,íamos,target,fundíamos,
46,condition1,ar,rimar,j,618,105,arás,target,rimarás,
46,condition1,er,frinder,f,2313,106,eríamos,distractor,frinderíamos,
46,condition1,ir,cumplir,j,689,107,iríamos,target,cumpliríamos,
46,condition1,ar,luchar,j,893,108,aré,target,lucharé,
46,condition1,ar,durar,j,635,109,ará,target,durará,
46,condition1,ar,ciser,j,1310,110,aría,distractor,cisaría,
46,condition1,ar,narrar,j,857,111,aremos,target,narraremos,
46,condition1,ir,unir,j,1060,112,iríamos,target,uniríamos,
46,condition1,ir,batir,j,835,113,ías,target,batías,
46,condition1,ar,lailar,f,1335,114,aré,distractor,lailaré,
46,condition1,er,correr,j,623,115,erá,target,correrá,
46,condition1,ir,batir,j,753,116,iremos,target,batiremos,
46,condition1,er,correr,j,729,117,erán,target,correrán,
46,condition1,ar,burrar,j,1809,118,aban,distractor,burraban,
46,condition1,ar,fisar,j,919,119,abas,distractor,fisabas,
46,condition1,ar,chanrar,j,929,120,arías,distractor,chanrarías,
46,condition1,ar,rotar,j,1039,121,ábamos,target,rotábamos,
46,condition1,ar,cetar,j,3785,122,arás,distractor,cetarás,
46,condition1,er,temer,j,682,123,ería,target,temería,
46,condition1,ar,jurar,j,653,124,aríamos,target,juraríamos,
46,condition1,er,morder,j,783,125,ías,target,mordías,
46,condition1,ar,sumar,j,726,126,aremos,target,sumaremos,
46,condition1,er,temer,j,514,127,eré,target,temeré,
46,condition1,ar,narrar,j,641,128,arán,target,narrarán,
46,condition1,ar,ciser,f,960,129,aré,distractor,cisaré,
46,condition1,ar,chanrar,f,996,130,aríamos,distractor,chanraríamos,
46,condition1,ar,retar,j,610,131,aré,target,retaré,
46,condition1,er,ceder,j,765,132,eré,target,cederé,
46,condition1,ar,tasar,j,866,133,aba,target,tasaba,
46,condition1,ar,quijar,j,1836,134,ará,distractor,quijará,
46,condition1,ir,gamir,j,748,135,irás,distractor,gamirás,
46,condition1,ir,partir,j,751,136,irás,target,partirás,
46,condition1,er,somer,j,675,137,ería,distractor,somería,
46,condition1,ar,bigar,f,957,138,aban,distractor,bigaban,
46,condition1,ar,obrar,j,2131,139,ábamos,target,obrábamos,
46,condition1,ir,imir,f,1163,140,íamos,distractor,imíamos,
46,condition1,er,meter,j,781,141,eremos,target,meteremos,
46,condition1,er,seper,f,1808,142,erían,distractor,seperían,
46,condition1,ar,cortar,j,597,143,ará,target,cortará,
46,condition1,er,toser,j,621,144,eré,target,toseré,
46,condition1,ar,hallar,j,634,145,aremos,target,hallaremos,
46,condition1,er,lamer,j,1544,146,íamos,target,lamíamos,
46,condition1,ir,cuarrir,f,1222,147,ían,distractor,cuarrían,
46,condition1,er,prender,j,922,148,íamos,target,prendíamos,
46,condition1,ir,sufrir,j,1329,149,irás,target,sufrirás,
46,condition1,ar,hallar,j,799,150,arían,target,hallarían,
46,condition1,er,barrer,j,1068,151,íamos,target,barríamos,
46,condition1,er,frinder,j,3035,152,eremos,distractor,frinderemos,
46,condition1,ir,cuarrir,f,1183,153,ía,distractor,cuarría,
46,condition1,er,prender,j,4274,154,eríamos,target,prenderíamos,
46,condition1,ar,focar,f,2235,155,ábamos,distractor,focábamos,
46,condition1,ar,narrar,j,734,156,arían,target,narrarían,
46,condition1,ar,luchar,j,771,157,aríamos,target,lucharíamos,
46,condition1,ar,charlar,j,1141,158,ará,target,charlará,
46,condition1,ar,rayar,j,923,159,abas,target,rayabas,
46,condition1,er,barrer,j,797,160,ería,target,barrería,
46,condition1,er,temer,j,553,161,erían,target,temerían,
46,condition1,er,cefler,j,1417,162,eré,distractor,cefleré,
46,condition1,er,toser,j,661,163,ías,target,tosías,
46,condition1,er,lamer,j,521,164,ía,target,lamía,
46,condition1,ir,mardir,j,2457,165,iríamos,distractor,mardiríamos,
46,condition1,er,hier,j,1683,166,erán,distractor,hierán,
46,condition1,ar,gachar,j,2533,167,aríamos,distractor,gacharíamos,
46,condition1,ar,zusar,j,1449,168,ará,distractor,zusará,
46,condition1,ir,cuarrir,j,1970,169,iríamos,distractor,cuarriríamos,
46,condition1,ar,quijar,j,4827,170,arían,distractor,quijarían,
46,condition1,er,seser,j,723,171,eré,distractor,seseré,
46,condition1,ar,runar,j,650,172,abas,distractor,runabas,
46,condition1,ar,burrar,f,1018,173,abas,distractor,burrabas,
46,condition1,ar,filtrar,j,886,174,aré,target,filtraré,
46,condition1,ar,sauar,f,1572,175,arás,distractor,sauarás,
46,condition1,ir,batir,j,488,176,iré,target,batiré,
46,condition1,ar,retar,j,603,177,aban,target,retaban,
46,condition1,ar,fautrar,j,4944,178,aríamos,distractor,fautraríamos,
46,condition1,ar,bigar,f,967,179,aba,distractor,bigaba,
46,condition1,ir,sufrir,j,582,180,irán,target,sufrirán,
46,condition1,ar,pavar,j,770,181,aríamos,distractor,pavaríamos,
46,condition1,er,honder,j,5251,182,eremos,distractor,honderemos,
46,condition1,ar,ciser,j,568,183,arás,distractor,cisarás,
46,condition1,er,seser,j,529,184,ía,distractor,sesía,
46,condition1,er,seper,j,542,185,eríamos,distractor,seperíamos,
46,condition1,ir,tuplir,j,696,186,irá,distractor,tuplirá,
46,condition1,ar,quemar,j,642,187,arían,target,quemarían,
46,condition1,ir,cichir,f,1167,188,ías,distractor,cichías,
46,condition1,ar,rimar,j,1085,189,arías,target,rimarías,
46,condition1,ir,imir,j,1161,190,iré,distractor,imiré,
46,condition1,ir,luntir,f,9681,191,ían,distractor,luntían,
46,condition1,er,coser,j,644,192,erá,target,coserá,
46,condition1,er,honder,f,1090,193,ería,distractor,hondería,
46,condition1,ar,tasar,j,705,194,arás,target,tasarás,
46,condition1,er,ciper,j,671,195,erían,distractor,ciperían,
46,condition1,er,clier,f,1841,196,ía,distractor,cliía,
46,condition1,ar,quemar,j,610,197,aremos,target,quemaremos,
46,condition1,ar,vidar,j,2546,198,aríamos,distractor,vidaríamos,
46,condition1,er,meter,j,850,199,erías,target,meterías,
46,condition1,er,vender,j,779,200,erás,target,venderás,
46,condition1,er,ceter,j,5636,202,erá,distractor,ceterá,
46,condition1,ar,cenar,j,706,203,ará,target,cenará,
46,condition1,ir,gamir,j,1404,204,ías,distractor,gamías,
46,condition1,er,faner,f,4403,205,eremos,distractor,faneremos,
46,condition1,er,moncer,j,788,206,ías,distractor,moncías,
46,condition1,ar,gachar,j,1099,207,abas,distractor,gachabas,
46,condition1,er,hier,f,1254,208,ían,distractor,hiían,
46,condition1,er,coser,j,620,209,ías,target,cosías,
46,condition1,ar,cenar,j,659,210,aría,target,cenaría,
46,condition1,ir,cichir,f,2188,211,irán,distractor,cichirán,
46,condition1,er,tejer,j,728,212,eríamos,target,tejeríamos,
46,condition1,er,raber,j,1075,213,ías,distractor,rabías,
46,condition1,er,comer,j,777,214,erían,target,comerían,
46,condition1,ar,lorgar,j,5034,215,ará,distractor,lorgará,
46,condition1,ar,cenar,j,876,216,aré,target,cenaré,
46,condition1,er,vender,j,601,217,eré,target,venderé,
46,condition1,er,somer,j,3944,218,erás,distractor,somerás,
46,condition1,er,morder,j,1857,219,erán,target,morderán,
46,condition1,ar,runar,j,667,220,aré,distractor,runaré,
46,condition1,ar,clartar,f,1289,221,aremos,distractor,clartaremos,
46,condition1,ar,hilar,j,1034,222,arías,target,hilarías,
46,condition1,er,creer,j,652,223,ería,target,creería,
46,condition1,er,barrer,j,923,224,erían,target,barrerían,
46,condition1,er,cefler,f,1141,225,erá,distractor,ceflerá,
46,condition1,er,faner,f,917,226,erán,distractor,fanerán,
46,condition1,ar,fisar,j,806,227,aban,distractor,fisaban,
46,condition1,er,barrer,j,745,228,ían,target,barrían,
46,condition1,ir,cichir,f,843,229,irá,distractor,cichirá,
46,condition1,ir,sufrir,j,682,230,irías,target,sufrirías,
46,condition1,ar,jurar,j,1009,231,arán,target,jurarán,
46,condition1,ar,rayar,j,561,232,aré,target,rayaré,
46,condition1,ar,zusar,j,1423,233,aremos,distractor,zusaremos,
46,condition1,er,correr,j,575,234,íamos,target,corríamos,
46,condition1,ir,cumplir,j,2149,235,irán,target,cumplirán,
46,condition1,er,leer,j,754,236,eré,target,leeré,
46,condition1,ar,chanrar,f,3361,237,ará,distractor,chanrará,
46,condition1,ar,limar,j,651,238,aré,target,limaré,
46,condition1,ar,samar,f,2023,239,aba,distractor,samaba,
46,condition1,ar,luchar,j,549,240,aremos,target,lucharemos,
46,condition1,ar,vidar,j,707,241,arás,distractor,vidarás,
46,condition1,er,correr,j,536,242,ías,target,corrías,
46,condition1,ar,rotar,j,782,243,arías,target,rotarías,
46,condition1,er,moncer,j,787,244,erías,distractor,moncerías,
46,condition1,er,comer,j,669,245,erá,target,comerá,
46,condition1,ar,retar,j,668,246,aba,target,retaba,
46,condition1,er,toser,j,500,247,ía,target,tosía,
46,condition1,ar,ciser,j,989,248,abas,distractor,cisabas,
46,condition1,ir,cumplir,j,951,249,iré,target,cumpliré,
46,condition1,ar,gachar,j,1581,250,aba,distractor,gachaba,
46,condition1,er,tejer,j,1383,251,erías,target,tejerías,
46,condition1,er,seser,j,1826,252,erán,distractor,seserán,
46,condition1,er,moncer,j,2430,253,eríamos,distractor,monceríamos,
46,condition1,ir,unir,j,1768,254,iremos,target,uniremos,
46,condition1,ar,vultar,j,959,255,aré,distractor,vultaré,
46,condition1,er,faner,f,1191,256,ería,distractor,fanería,
46,condition1,ar,luchar,j,502,257,ará,target,luchará,
46,condition1,ar,bailar,j,526,258,arás,target,bailarás,
46,condition1,ar,ciser,j,917,259,aremos,distractor,cisaremos,
46,condition1,ar,charlar,f,981,260,arás,target,charlarás,
46,condition1,ar,rayar,j,656,261,aría,target,rayaría,
46,condition1,ar,pavar,j,609,262,arían,distractor,pavarían,
46,condition1,er,porer,j,914,263,erá,distractor,porerá,
46,condition1,ir,subir,j,778,264,iríamos,target,subiríamos,
46,condition1,er,tejer,j,1360,265,íamos,target,tejíamos,
46,condition1,er,moncer,f,1188,266,eremos,distractor,monceremos,
46,condition1,er,anrer,j,2108,267,erían,distractor,anrerían,
46,condition1,ar,limar,j,723,268,aríamos,target,limaríamos,
46,condition1,ar,ciser,j,695,269,aba,distractor,cisaba,
46,condition1,er,creer,j,526,270,ían,target,creían,
46,condition1,ar,focar,j,639,271,arían,distractor,focarían,
46,condition1,er,faner,j,1353,272,eré,distractor,faneré,
46,condition1,ar,narrar,j,641,273,aré,target,narraré,
46,condition1,ar,obrar,j,651,274,aré,target,obraré,
46,condition1,ar,pactar,j,690,275,aremos,target,pactaremos,
46,condition1,ar,fisar,j,965,276,ábamos,distractor,fisábamos,
46,condition1,er,vender,j,576,277,ía,target,vendía,
46,condition1,er,leer,j,542,278,ería,target,leería,
46,condition1,ir,bruvir,f,1069,279,irá,distractor,bruvirá,
46,condition1,ar,hallar,j,2650,280,arías,target,hallarías,
46,condition1,ir,gamir,j,2052,281,irán,distractor,gamirán,
46,condition1,er,comer,j,612,282,erán,target,comerán,
46,condition1,ar,vultar,f,1144,283,arían,distractor,vultarían,
46,condition1,ar,rimar,j,613,284,ará,target,rimará,
46,condition1,er,hier,j,854,285,eré,distractor,hieré,
46,condition1,ir,partir,j,1119,286,irían,target,partirían,
46,condition1,er,hier,f,852,287,ía,distractor,hiía,
46,condition1,er,lamer,j,1334,288,eré,target,lameré,
46,condition1,er,riter,f,1408,289,ías,distractor,ritías,
